"rt","key_press","trial_type","trial_index","time_elapsed","internal_node_id","correct","choices","correct_choice","trial_duration","response_ends_trial","number_of_dots","number_of_sets","coherent_direction","coherence","dot_radius","dot_life","move_distance","aperture_width","aperture_height","dot_color","background_color","RDK_type","aperture_type","reinsert_type","frame_rate","frame_rate_array","number_of_frames"
"766","13","text","0","768","0.0-0.0","","","","","","","","","","","","","","","","","","","","","",""
"-1","-1","RDK","1","1987","0.0-1.0-0.0","false","a,l","l","200","true","200","1","0","0.5","2","-1","1","600","400","white","gray","3","2","2","16.799999999999997","[36.820000000000164,9.274999999999864,7.009999999999991,15.5150000000001,19.61999999999989,16.5150000000001,13.964999999999918,15.570000000000164,17.044999999999845,19.069999999999936,14.394999999999982]","11"
"-1","-1","RDK","2","2190","0.0-1.0-1.0","false","a,l","a","200","true","200","1","180","0.5","2","-1","1","600","400","white","gray","3","2","2","16.04833333333333","[9.890000000000327,16.424999999999727,16.50500000000011,15.934999999999945,17.34999999999991,18.2800000000002,14.8449999999998,17.09999999999991,16.550000000000182,16.795000000000073,16.449999999999818,16.454999999999927]","12"
"-1","-1","RDK","3","2400","0.0-1.0-2.0","false","a,l","a","200","true","200","1","180","0.5","2","-1","1","600","400","white","gray","3","2","2","16.687916666666677","[18.394999999999982,14.890000000000327,17.789999999999964,15.86999999999989,16.23999999999978,17.070000000000164,16.644999999999982,17.019999999999982,16.855000000000018,16.375,16.595000000000255,16.509999999999764]","12"
"-1","-1","RDK","4","2617","0.0-1.0-3.0","false","a,l","a","200","true","200","1","180","0.5","2","-1","1","600","400","white","gray","3","2","2","16.66416666666665","[16.98999999999978,16.170000000000073,16.809999999999945,16.9050000000002,16.58999999999969,16.855000000000018,15.684999999999945,19.38500000000022,13.884999999999764,17.215000000000146,17.315000000000055,16.164999999999964]","12"
"-1","-1","RDK","5","2836","0.0-1.0-4.0","false","a,l","l","200","true","200","1","0","0.5","2","-1","1","600","400","white","gray","3","2","2","16.674583333333317","[17.279999999999745,17.470000000000255,15.789999999999964,16.164999999999964,17.00500000000011,17.0949999999998,17.815000000000055,18.51000000000022,13.849999999999909,16.23999999999978,17.575000000000273,15.299999999999727]","12"
"-1","-1","RDK","6","3052","0.0-1.0-5.0","false","a,l","l","200","true","200","1","0","0.5","2","-1","1","600","400","white","gray","3","2","2","16.700416666666644","[17.324999999999818,16.434999999999945,16.559999999999945,16.820000000000164,16.595000000000255,16.894999999999982,16.144999999999982,19.934999999999945,13.775000000000091,16.559999999999945,16.894999999999982,16.46499999999969]","12"
"-1","-1","RDK","7","3268","0.0-1.0-6.0","false","a,l","a","200","true","200","1","180","0.5","2","-1","1","600","400","white","gray","3","2","2","16.762500000000006","[16.990000000000236,16.954999999999927,16.485000000000127,16.954999999999927,16.480000000000018,16.894999999999982,16.454999999999927,16.860000000000127,15.359999999999673,17.88000000000011,16.65000000000009,17.184999999999945]","12"
"-1","-1","RDK","8","3485","0.0-1.0-7.0","false","a,l","l","200","true","200","1","0","0.5","2","-1","1","600","400","white","gray","3","2","2","16.645833333333332","[17.86999999999989,15.904999999999745,17.225000000000364,18.059999999999945,14.764999999999873,16.735000000000127,16.984999999999673,16.4050000000002,17.304999999999836,16.01000000000022,16.86499999999978,15.620000000000346]","12"
"-1","-1","RDK","9","3702","0.0-1.0-8.0","false","a,l","a","200","true","200","1","180","0.5","2","-1","1","600","400","white","gray","3","2","2","16.604583333333306","[15.944999999999709,17.100000000000364,16.125,16.729999999999563,16.570000000000164,17.735000000000127,14.840000000000146,17.96499999999969,15.269999999999982,17.99499999999989,16.450000000000273,16.529999999999745]","12"
"-1","-1","RDK","10","3919","0.0-1.0-9.0","false","a,l","a","200","true","200","1","180","0.5","2","-1","1","600","400","white","gray","3","2","2","16.69500000000001","[17.80500000000029,15.315000000000055,17.230000000000018,16.5949999999998,17.09999999999991,15.695000000000164,17.539999999999964,16.409999999999854,16.34999999999991,16.870000000000346,17.159999999999854,16.269999999999982]","12"
"-1","-1","RDK","11","4136","0.0-1.0-10.0","false","a,l","a","200","true","200","1","180","0.5","2","-1","1","600","400","white","gray","3","2","2","16.720000000000027","[17.1850000000004,16.674999999999727,16.409999999999854,15.860000000000127,17.274999999999636,18.355000000000473,14.289999999999964,17.465000000000146,16.784999999999854,16.975000000000364,16.339999999999236,17.025000000000546]","12"
"-1","-1","RDK","12","4354","0.0-1.0-11.0","false","a,l","l","200","true","200","1","0","0.5","2","-1","1","600","400","white","gray","3","2","2","16.741250000000036","[19.965000000000146,14.770000000000437,16.219999999999345,16.31500000000051,17.23999999999978,17.68000000000029,15.799999999999272,17.045000000000073,15.69000000000051,17.13500000000022,16.045000000000073,16.98999999999978]","12"
"-1","-1","RDK","13","4568","0.0-1.0-12.0","false","a,l","a","200","true","200","1","180","0.5","2","-1","1","600","400","white","gray","3","2","2","16.732083333333396","[21.090000000000146,12.38000000000011,17.454999999999927,16.360000000000582,17.50999999999931,15.850000000000364,16.894999999999527,16.405000000000655,17.13000000000011,15.729999999999563,17.609999999999673,16.3700000000008]","12"
"-1","-1","RDK","14","4785","0.0-1.0-13.0","false","a,l","l","200","true","200","1","0","0.5","2","-1","1","600","400","white","gray","3","2","2","16.67416666666668","[29.420000000000073,4.414999999999964,16.6850000000004,16.55499999999938,16.56500000000051,17.460000000000036,16.324999999999818,17.409999999999854,15.769999999999527,16.900000000000546,16.55999999999949,16.025000000000546]","12"
"-1","-1","RDK","15","5001","0.0-1.0-14.0","false","a,l","a","200","true","200","1","180","0.5","2","-1","1","600","400","white","gray","3","2","2","16.644166666666706","[18.034999999999854,15.990000000000691,16.824999999999818,16.50500000000011,16.774999999999636,16.425000000000182,15.725000000000364,17.399999999999636,17.590000000000146,16.264999999999418,16.280000000000655,15.914999999999964]","12"
"-1","-1","RDK","16","5217","0.0-1.0-15.0","false","a,l","l","200","true","200","1","0","0.5","2","-1","1","600","400","white","gray","3","2","2","16.74083333333336","[16.450000000000728,16.574999999999818,17.659999999999854,16.50500000000011,15.679999999999382,17.715000000000146,16.86500000000069,16.25999999999931,16.170000000000073,16.69000000000051,17.514999999999418,16.80500000000029]","12"
"-1","-1","RDK","17","5437","0.0-1.0-16.0","false","a,l","l","200","true","200","1","0","0.5","2","-1","1","600","400","white","gray","3","2","2","16.662499999999984","[17.095000000000255,17.05499999999938,15.659999999999854,16.25500000000011,18.039999999999964,16.50500000000011,16.4350000000004,16.73999999999978,16.664999999999964,16.800000000000182,16.609999999999673,16.090000000000146]","12"
"-1","-1","RDK","18","5651","0.0-1.0-17.0","false","a,l","a","200","true","200","1","180","0.5","2","-1","1","600","400","white","gray","3","2","2","16.729166666666668","[17.720000000000255,16.30999999999949,17.414999999999964,15.86999999999989,16.75500000000011,16.110000000000582,17.019999999999527,16.625,16.960000000000036,16.850000000000364,15.909999999999854,17.204999999999927]","12"
"-1","-1","RDK","19","5867","0.0-1.0-18.0","false","a,l","a","200","true","200","1","180","0.5","2","-1","1","600","400","white","gray","3","2","2","16.789583333333365","[17.38000000000011,16.36999999999989,17.645000000000437,15.674999999999272,17.3700000000008,16.799999999999272,16.595000000000255,16.649999999999636,16.93000000000029,16.164999999999964,17.13500000000022,16.76000000000022]","12"
"-1","-1","RDK","20","6087","0.0-1.0-19.0","false","a,l","l","200","true","200","1","0","0.5","2","-1","1","600","400","white","gray","3","2","2","16.615416666666608","[17.11499999999978,15.679999999999382,20.800000000000182,12.780000000000655,16.854999999999563,17.204999999999927,15.859999999999673,17.375,16.785000000000764,16.545000000000073,17.774999999999636,14.609999999999673]","12"
"-1","-1","RDK","21","6301","0.0-1.0-20.0","false","a,l","l","200","true","200","1","0","0.5","2","-1","1","600","400","white","gray","3","2","2","16.75249999999998","[17.715000000000146,16.579999999999927,16.76000000000022,16.345000000000255,17.3149999999996,16.25,15.614999999999782,19.795000000000073,14.534999999999854,16.63500000000022,16.340000000000146,17.144999999999527]","12"
"-1","-1","RDK","22","6519","0.0-1.0-21.0","false","a,l","l","200","true","200","1","0","0.5","2","-1","1","600","400","white","gray","3","2","2","16.830000000000002","[18.485000000000582,14.389999999999418,17.280000000000655,16.9399999999996,16.335000000000036,17.664999999999964,16.355000000000473,16.019999999999527,16.18000000000029,17.69499999999971,16.63000000000011,17.984999999999673]","12"
"-1","-1","RDK","23","6733","0.0-1.0-22.0","false","a,l","l","200","true","200","1","0","0.5","2","-1","1","600","400","white","gray","3","2","2","16.616666666666635","[16.94499999999971,16.80500000000029,16.51000000000022,16.774999999999636,16.204999999999927,17.400000000000546,16.670000000000073,16.44499999999971,16.899999999999636,15.820000000000618,16.7549999999992,16.170000000000073]","12"
"-1","-1","RDK","24","6952","0.0-1.0-23.0","false","a,l","l","200","true","200","1","0","0.5","2","-1","1","600","400","white","gray","3","2","2","16.725833333333338","[17.345000000000255,16.529999999999745,16.789999999999964,15.595000000000255,17.56999999999971,16.659999999999854,16.949999999999818,16.289999999999964,16.985000000000582,16.50500000000011,16.2549999999992,17.235000000000582]","12"
"-1","-1","RDK","25","7167","0.0-1.0-24.0","false","a,l","l","200","true","200","1","0","0.5","2","-1","1","600","400","white","gray","3","2","2","16.71458333333332","[18.140000000000327,14.800000000000182,17.44499999999971,17.88000000000011,14.894999999999527,17.31500000000051,16.354999999999563,16.86499999999978,17.450000000000728,15.239999999999782,17.470000000000255,16.719999999999345]","12"
"-1","-1","RDK","26","7387","0.0-1.0-25.0","false","a,l","l","200","true","200","1","0","0.5","2","-1","1","600","400","white","gray","3","2","2","16.62416666666665","[16.299999999999272,16.6850000000004,17.43499999999949,15.9350000000004,16.734999999999673,17.405000000000655,16.88000000000011,16.349999999999454,16.704999999999927,16.664999999999964,16.664999999999964,15.730000000000473]","12"
"-1","-1","RDK","27","7602","0.0-1.0-26.0","false","a,l","a","200","true","200","1","180","0.5","2","-1","1","600","400","white","gray","3","2","2","16.624583333333323","[16.92999999999938,16.520000000000437,15.68499999999949,17.63000000000011,17.19500000000062,16.154999999999745,15.979999999999563,17.030000000000655,17.359999999999673,16.399999999999636,16.3100000000004,16.300000000000182]","12"
"-1","-1","RDK","28","7817","0.0-1.0-27.0","false","a,l","l","200","true","200","1","0","0.5","2","-1","1","600","400","white","gray","3","2","2","16.774166666666662","[17.25,16.38000000000011,17.659999999999854,16.67999999999938,16.655000000000655,16.840000000000146,16.56999999999971,16.534999999999854,16.6850000000004,16.359999999999673,16.835000000000036,16.840000000000146]","12"
"-1","-1","RDK","29","8037","0.0-1.0-28.0","false","a,l","a","200","true","200","1","180","0.5","2","-1","1","600","400","white","gray","3","2","2","16.723750000000035","[20.00500000000011,13.295000000000073,16.909999999999854,16.404999999999745,16.900000000000546,17.399999999999636,15.63000000000011,16.63000000000011,17.359999999999673,16.045000000000073,16.585000000000036,17.520000000000437]","12"
"-1","-1","RDK","30","8249","0.0-1.0-29.0","false","a,l","l","200","true","200","1","0","0.5","2","-1","1","600","400","white","gray","3","2","2","16.9263636363636","[17.225000000000364,16.654999999999745,16.86499999999978,16.55500000000029,17.68000000000029,16.020000000000437,17.25,16.74499999999898,16.75,16.210000000000946,18.234999999998763]","11"
"-1","-1","RDK","31","8449","0.0-1.0-30.0","false","a,l","a","200","true","200","1","180","0.5","2","-1","1","600","400","white","gray","3","2","2","16.669999999999906","[16.799999999999272,16.220000000001164,16.799999999999272,18.405000000000655,15.5099999999984,16.410000000001673,17.68499999999949,16.06500000000051,17.639999999999418,15.75,16.084999999999127]","11"
"-1","-1","RDK","32","8652","0.0-1.0-31.0","false","a,l","a","200","true","200","1","180","0.5","2","-1","1","600","400","white","gray","3","2","2","16.672499999999975","[16.86999999999898,16.415000000000873,18.80500000000029,14.464999999998327,15.895000000000437,17.835000000000946,15.680000000000291,17.424999999999272,16.840000000000146,16.43499999999949,16.215000000000146,17.19000000000051]","12"
"-1","-1","RDK","33","8873","0.0-1.0-32.0","false","a,l","a","200","true","200","1","180","0.5","2","-1","1","600","400","white","gray","3","2","2","16.575416666666722","[15.470000000001164,15.774999999999636,16.8700000000008,17.32499999999891,16.335000000000946,16.93999999999869,16.68500000000131,16.170000000000073,17.584999999999127,15.985000000000582,17.01000000000022,16.7549999999992]","12"
"-1","-1","RDK","34","9084","0.0-1.0-33.0","false","a,l","l","200","true","200","1","0","0.5","2","-1","1","600","400","white","gray","3","2","2","16.716666666666544","[18.224999999998545,16.670000000000073,16.405000000000655,15.784999999999854,17.63500000000022,18.665000000000873,14.6349999999984,16.265000000001237,17.19999999999891,17.720000000001164,16.44499999999971,14.949999999998909]","12"
"-1","-1","RDK","35","9303","0.0-1.0-34.0","false","a,l","a","200","true","200","1","180","0.5","2","-1","1","600","400","white","gray","3","2","2","16.661666666666708","[16.88500000000022,15.850000000000364,17.659999999999854,16.3799999999992,15.895000000000437,16.799999999999272,17.01000000000022,16.985000000000582,16.829999999999927,15.850000000000364,17.23999999999978,16.55500000000029]","12"
"-1","-1","RDK","36","9518","0.0-1.0-35.0","false","a,l","a","200","true","200","1","180","0.5","2","-1","1","600","400","white","gray","3","2","2","16.709583333333285","[17.61499999999978,15.479999999999563,17.470000000001164,16.25,16.57499999999891,17.26000000000022,16.26000000000022,16.954999999999927,15.890000000001237,16.86999999999898,17.38500000000022,16.5049999999992]","12"
"-1","-1","RDK","37","9734","0.0-1.0-36.0","false","a,l","a","200","true","200","1","180","0.5","2","-1","1","600","400","white","gray","3","2","2","16.62083333333324","[17.149999999999636,16.645000000000437,15.574999999998909,16.55000000000109,17.3799999999992,17.270000000000437,16.725000000000364,16.399999999999636,17.30999999999949,16.700000000000728,15.194999999999709,16.549999999999272]","12"
"-1","-1","RDK","38","9953","0.0-1.0-37.0","false","a,l","a","200","true","200","1","180","0.5","2","-1","1","600","400","white","gray","3","2","2","16.62083333333324","[16.670000000000073,16.219999999999345,16.93000000000029,16.68499999999949,16.76000000000022,16.590000000000146,15.895000000000437,17.594999999999345,16.534999999999854,16.344999999999345,16.965000000000146,16.26000000000022]","12"
"-1","-1","RDK","39","10171","0.0-1.0-38.0","false","a,l","l","200","true","200","1","0","0.5","2","-1","1","600","400","white","gray","3","2","2","18.32818181818187","[19.225000000000364,14.555000000000291,17.514999999999418,18.355000000001382,33.24499999999898,16.55500000000029,15.274999999999636,16.80000000000109,15.989999999999782,18.045000000000073,16.049999999999272]","11"
"-1","-1","RDK","40","10384","0.0-1.0-39.0","false","a,l","l","200","true","200","1","0","0.5","2","-1","1","600","400","white","gray","3","2","2","16.634166666666715","[17.345000000001164,16.55999999999949,16.655000000000655,15.81499999999869,17.375,17.23999999999978,18.67500000000109,18.344999999999345,12.729999999999563,16.390000000001237,17.13500000000022,15.344999999999345]","12"
"-1","-1","RDK","41","10600","0.0-1.0-40.0","false","a,l","l","200","true","200","1","0","0.5","2","-1","1","600","400","white","gray","3","2","2","16.76999999999994","[17.735000000000582,16.545000000000073,16.68499999999949,16.784999999999854,16.424999999999272,17.100000000000364,17.25,18.469999999999345,13.970000000001164,16.520000000000437,16.984999999998763]","11"
"-1","-1","RDK","42","10806","0.0-1.0-41.0","false","a,l","l","200","true","200","1","0","0.5","2","-1","1","600","400","white","gray","3","2","2","16.560000000000098","[16.095000000001164,14.805000000000291,16.81499999999869,15.970000000001164,18.334999999999127,15.899999999999636,17.86499999999978,15.460000000000946,16.549999999999272,16.460000000000946,16.899999999999636,17.56500000000051]","12"
"-1","-1","RDK","43","11021","0.0-1.0-42.0","false","a,l","a","200","true","200","1","180","0.5","2","-1","1","600","400","white","gray","3","2","2","16.73083333333337","[22.829999999999927,11.18499999999949,16.575000000000728,16.764999999999418,16.545000000000073,16.19000000000051,17.5049999999992,16.17500000000109,16.8799999999992,16.954999999999927,16.575000000000728,16.590000000000146]","12"
"-1","-1","RDK","44","11235","0.0-1.0-43.0","false","a,l","l","200","true","200","1","0","0.5","2","-1","1","600","400","white","gray","3","2","2","16.7804166666668","[19.700000000000728,15.1299999999992,15.585000000000946,17.43499999999949,16.765000000001237,17.19999999999891,16.55500000000029,15.389999999999418,18.235000000000582,16.090000000000146,16.534999999999854,16.7450000000008]","12"
"-1","-1","RDK","45","11456","0.0-1.0-44.0","false","a,l","a","200","true","200","1","180","0.5","2","-1","1","600","400","white","gray","3","2","2","16.70625000000003","[17.030000000000655,16.654999999998836,15.69000000000051,17.729999999999563,16.9950000000008,15.44000000000051,17.474999999998545,16.605000000001382,16.659999999999854,16.69000000000051,16.079999999999927,17.424999999999272]","12"
"-1","-1","RDK","46","11671","0.0-1.0-45.0","false","a,l","a","200","true","200","1","180","0.5","2","-1","1","600","400","white","gray","3","2","2","16.605000000000018","[17.220000000001164,16.084999999999127,16.950000000000728,16.049999999999272,16.8700000000008,17.089999999998327,16.94000000000051,16.475000000000364,17.034999999999854,16.549999999999272,16.340000000000146,15.655000000000655]","12"
"-1","-1","RDK","47","11884","0.0-1.0-46.0","false","a,l","l","200","true","200","1","0","0.5","2","-1","1","600","400","white","gray","3","2","2","16.7777272727273","[18.399999999999636,16.18000000000029,16.725000000000364,16.38500000000022,16.06499999999869,17.450000000000728,16.795000000000073,15.569999999999709,17.51000000000022,16.975000000000364,16.5]","11"
"-1","-1","RDK","48","12089","0.0-1.0-47.0","false","a,l","l","200","true","200","1","0","0.5","2","-1","1","600","400","white","gray","3","2","2","16.652916666666744","[16.140000000001237,16.55999999999949,16.639999999999418,15.854999999999563,17.290000000000873,16.94999999999891,17.05500000000029,16.18500000000131,17.1349999999984,16.2450000000008,17.06500000000051,16.715000000000146]","12"
"-1","-1","RDK","49","12302","0.0-1.0-48.0","false","a,l","l","200","true","200","1","0","0.5","2","-1","1","600","400","white","gray","3","2","2","16.703749999999975","[17.094999999999345,17.610000000000582,15.729999999999563,15.81500000000051,16.48999999999978,16.770000000000437,17.045000000000073,17.090000000000146,16.81500000000051,16.679999999998472,16.7400000000016,16.56499999999869]","12"
"-1","-1","RDK","50","12519","0.0-1.0-49.0","false","a,l","l","200","true","200","1","0","0.5","2","-1","1","600","400","white","gray","3","2","2","16.71291666666669","[17.029999999998836,16.13500000000022,17.280000000000655,16.479999999999563,16.835000000000946,16.625,16.86499999999978,16.5,16.024999999999636,16.825000000000728,17.215000000000146,16.73999999999978]","12"
"-1","-1","RDK","51","12735","0.0-1.0-50.0","false","a,l","a","200","true","200","1","180","0.5","2","-1","1","600","400","white","gray","3","2","2","16.64250000000008","[17.13500000000022,16.00500000000102,18.045000000000073,15.06499999999869,18.7450000000008,15.930000000000291,16.600000000000364,16.31499999999869,16.659999999999854,16.780000000000655,17.524999999999636,14.905000000000655]","12"
"-1","-1","RDK","52","12954","0.0-1.0-51.0","false","a,l","a","200","true","200","1","180","0.5","2","-1","1","600","400","white","gray","3","2","2","16.709166666666686","[18.145000000000437,15.704999999999927,16.625,16.849999999998545,15.930000000000291,17.204999999999927,16.235000000000582,17.284999999999854,15.755000000001019,16.849999999998545,17.270000000000437,16.655000000000655]","12"
"-1","-1","RDK","53","13169","0.0-1.0-52.0","false","a,l","l","200","true","200","1","0","0.5","2","-1","1","600","400","white","gray","3","2","2","16.690000000000055","[17.525000000001455,16.215000000000146,17.174999999999272,16.200000000000728,19.23999999999978,13.75,17.57499999999891,17.17500000000109,15.090000000000146,17.31499999999869,17,16.020000000000437]","12"
"-1","-1","RDK","54","13389","0.0-1.0-53.0","false","a,l","a","200","true","200","1","180","0.5","2","-1","1","600","400","white","gray","3","2","2","16.733333333333423","[17.580000000001746,16.029999999998836,18.280000000000655,14.194999999999709,17.334999999999127,16.975000000000364,17.165000000000873,16.395000000000437,16.98999999999978,15.959999999999127,17.170000000000073,16.725000000000364]","12"
"-1","-1","RDK","55","13604","0.0-1.0-54.0","false","a,l","a","200","true","200","1","180","0.5","2","-1","1","600","400","white","gray","3","2","2","16.720833333333303","[17.38500000000022,16.5049999999992,16.395000000000437,16.420000000000073,16.8700000000008,16.924999999999272,16.11499999999978,17.30999999999949,16.715000000000146,16.020000000000437,17.274999999999636,16.715000000000146]","12"
"-1","-1","RDK","56","13819","0.0-1.0-55.0","false","a,l","a","200","true","200","1","180","0.5","2","-1","1","600","400","white","gray","3","2","2","16.67500000000003","[17.99499999999898,15.275000000001455,20.054999999998472,14.445000000001528,14.929999999998472,17.76000000000022,17.7450000000008,14.68499999999949,17.44499999999971,16.340000000000146,17.225000000000364,16.200000000000728]","12"
"-1","-1","RDK","57","14040","0.0-1.0-56.0","false","a,l","l","200","true","200","1","0","0.5","2","-1","1","600","400","white","gray","3","2","2","16.676249999999982","[20.829999999999927,13.364999999999782,15.649999999999636,16.645000000000437,17.30999999999949,17.2450000000008,15.4950000000008,17.914999999999054,16.43499999999949,19.1200000000008,13.465000000000146,16.639999999999418]","12"
"-1","-1","RDK","58","14254","0.0-1.0-57.0","false","a,l","a","200","true","200","1","180","0.5","2","-1","1","600","400","white","gray","3","2","2","16.717500000000047","[17.270000000000437,16.63500000000022,15.965000000000146,17.454999999999927,16.56499999999869,16.665000000000873,16.840000000000146,16.409999999999854,16.94000000000051,16.5049999999992,16.875,16.485000000000582]","12"
"-1","-1","RDK","59","14470","0.0-1.0-58.0","false","a,l","l","200","true","200","1","0","0.5","2","-1","1","600","400","white","gray","3","2","2","16.667500000000018","[16.485000000000582,16.049999999999272,17.43000000000029,16.530000000000655,16.6349999999984,16.80000000000109,16.06500000000051,16.264999999999418,17.545000000000073,17.904999999998836,14.525000000001455,17.774999999999636]","12"
"-1","-1","RDK","60","14686","0.0-1.0-59.0","false","a,l","l","200","true","200","1","0","0.5","2","-1","1","600","400","white","gray","3","2","2","16.622499999999945","[17.26000000000022,16.354999999999563,16.625,15.735000000000582,17.26000000000022,17.089999999998327,16.93500000000131,16.389999999999418,16.790000000000873,17.375,15.864999999999782,15.789999999999054]","12"
"-1","-1","RDK","61","14905","0.0-1.0-60.0","false","a,l","a","200","true","200","1","180","0.5","2","-1","1","600","400","white","gray","3","2","2","16.7495833333334","[17.585000000000946,16.545000000000073,17.44999999999891,14.790000000000873,17.354999999999563,17.790000000000873,15.229999999999563,17.13500000000022,16.954999999999927,16.68499999999949,15.840000000000146,17.63500000000022]","12"
"-1","-1","RDK","62","15120","0.0-1.0-61.0","false","a,l","a","200","true","200","1","180","0.5","2","-1","1","600","400","white","gray","3","2","2","16.76166666666677","[16.960000000000946,17.340000000000146,16.274999999999636,16.625,16.56500000000051,16.715000000000146,16.74499999999898,16.55000000000109,16.24499999999898,17.094999999999345,17.01000000000022,17.015000000001237]","12"
"-1","-1","RDK","63","15336","0.0-1.0-62.0","false","a,l","l","200","true","200","1","0","0.5","2","-1","1","600","400","white","gray","3","2","2","16.623333333333296","[17.090000000000146,16.090000000000146,16.420000000000073,16.424999999999272,17.960000000000946,15.770000000000437,17.604999999999563,16.38500000000022,16.649999999999636,16.764999999999418,15.614999999999782,16.704999999999927]","12"
"-1","-1","RDK","64","15554","0.0-1.0-63.0","false","a,l","a","200","true","200","1","180","0.5","2","-1","1","600","400","white","gray","3","2","2","16.727499999999964","[17.420000000000073,15.645000000000437,16.6299999999992,17.725000000000364,17.085000000000946,16.06499999999869,16.225000000000364,17.395000000000437,16.68000000000029,16.350000000000364,16.709999999999127,16.799999999999272]","12"
"-1","-1","RDK","65","15770","0.0-1.0-64.0","false","a,l","l","200","true","200","1","0","0.5","2","-1","1","600","400","white","gray","3","2","2","16.677083333333332","[17,16.159999999999854,17.26000000000022,16.93000000000029,16.344999999999345,16.18500000000131,17.329999999999927,16.594999999999345,15.805000000000291,16.844999999999345,17.150000000001455,16.519999999998618]","12"
"-1","-1","RDK","66","15990","0.0-1.0-65.0","false","a,l","a","200","true","200","1","180","0.5","2","-1","1","600","400","white","gray","3","2","2","16.61125000000008","[17.090000000000146,18.360000000000582,14.329999999999927,16.799999999999272,16.50500000000102,18.5,14.894999999998618,17.215000000000146,16.645000000000437,16.75500000000102,16.534999999999854,15.704999999999927]","12"
"-1","-1","RDK","67","16205","0.0-1.0-66.0","false","a,l","l","200","true","200","1","0","0.5","2","-1","1","600","400","white","gray","3","2","2","16.723333333333358","[17.090000000000146,16.899999999999636,16.93000000000029,16.394999999998618,17.545000000000073,15.835000000000946,15.824999999998909,17.290000000000873,16.94499999999971,16.710000000000946,16.63500000000022,16.579999999999927]","12"
"-1","-1","RDK","68","16420","0.0-1.0-67.0","false","a,l","a","200","true","200","1","180","0.5","2","-1","1","600","400","white","gray","3","2","2","16.702083333333274","[17.014999999999418,15.895000000000437,17.299999999999272,16.169999999998254,17.260000000002037,16.81499999999869,16.56999999999971,16.400000000001455,16.424999999999272,16.465000000000146,17.485000000000582,16.625]","12"
"-1","-1","RDK","69","16640","0.0-1.0-68.0","false","a,l","a","200","true","200","1","180","0.5","2","-1","1","600","400","white","gray","3","2","2","16.758333333333212","[17.81000000000131,16.57499999999709,20.05000000000291,12.394999999996799,16.950000000000728,17.24500000000262,17.034999999999854,16.899999999997817,15.400000000001455,17.354999999999563,16.18500000000131,17.19999999999709]","12"
"-1","-1","RDK","70","16857","0.0-1.0-69.0","false","a,l","l","200","true","200","1","0","0.5","2","-1","1","600","400","white","gray","3","2","2","16.66958333333332","[17.68000000000029,16.61999999999898,17.110000000000582,16.06999999999971,17.914999999997235,15.605000000003201,15.539999999997235,17.93500000000131,16.514999999999418,16.705000000001746,18.6349999999984,13.705000000001746]","12"
"-1","-1","RDK","71","17071","0.0-1.0-70.0","false","a,l","a","200","true","200","1","180","0.5","2","-1","1","600","400","white","gray","3","2","2","16.75","[17.150000000001455,15.524999999997817,17.56500000000233,16.924999999999272,16.604999999999563,16.665000000000873,17.020000000000437,15.444999999999709,16.840000000000146,16.794999999998254,17.080000000001746,17.3849999999984]","12"
"-1","-1","RDK","72","17286","0.0-1.0-71.0","false","a,l","l","200","true","200","1","0","0.5","2","-1","1","600","400","white","gray","3","2","2","16.626249999999953","[17.514999999999418,16.159999999999854,16.760000000002037,16.554999999996653,16.275000000001455,17.654999999998836,16.6150000000016,16.25,16.529999999998836,17.110000000000582,16.174999999999272,15.915000000000873]","12"
"-1","-1","RDK","73","17505","0.0-1.0-72.0","false","a,l","l","200","true","200","1","0","0.5","2","-1","1","600","400","white","gray","3","2","2","16.724583333333612","[17.784999999999854,16.42000000000189,16.349999999998545,16.69499999999971,16.950000000000728,16.674999999999272,15.610000000000582,17.385000000002037,16.93499999999767,17.150000000001455,16.875,15.8650000000016]","12"
"-1","-1","RDK","74","17721","0.0-1.0-73.0","false","a,l","a","200","true","200","1","180","0.5","2","-1","1","600","400","white","gray","3","2","2","16.748333333333296","[17.834999999999127,15.670000000001892,17.200000000000728,15.965000000000146,16.554999999996653,17.840000000000146,16.790000000000873,16.385000000002037,16.715000000000146,15.969999999997526,18.04500000000189,16.0099999999984]","12"
"-1","-1","RDK","75","17940","0.0-1.0-74.0","false","a,l","a","200","true","200","1","180","0.5","2","-1","1","600","400","white","gray","3","2","2","16.695833333333514","[17.270000000000437,16.635000000002037,15.834999999999127,17.31499999999869,16.31000000000131,17.125,16.68000000000029,15.970000000001164,17.359999999996944,16.655000000002474,16.594999999997526,16.600000000002183]","12"
"-1","-1","RDK","76","18153","0.0-1.0-75.0","false","a,l","l","200","true","200","1","0","0.5","2","-1","1","600","400","white","gray","3","2","2","16.77090909090905","[17.665000000000873,15.904999999998836,16.459999999999127,17.700000000000728,16.794999999998254,16.54500000000189,15.604999999999563,17.705000000001746,16.734999999996944,16.720000000001164,16.645000000000437]","11"
"-1","-1","RDK","77","18358","0.0-1.0-76.0","false","a,l","a","200","true","200","1","180","0.5","2","-1","1","600","400","white","gray","3","2","2","16.672499999999975","[16.25,16.00499999999738,16.235000000000582,17.485000000000582,16.075000000000728,17.159999999999854,16.924999999999272,16.724999999998545,16.775000000001455,16.520000000000437,15.790000000000873,18.125]","12"
"-1","-1","RDK","78","18573","0.0-1.0-77.0","false","a,l","a","200","true","200","1","180","0.5","2","-1","1","600","400","white","gray","3","2","2","16.690416666666653","[19.8650000000016,13.680000000000291,16.469999999997526,17.00500000000102,16.540000000000873,16.06499999999869,17.409999999999854,17.88000000000102,15.264999999999418,15.944999999999709,17.600000000002183,16.55999999999767]","12"
"-1","-1","RDK","79","18788","0.0-1.0-78.0","false","a,l","a","200","true","200","1","180","0.5","2","-1","1","600","400","white","gray","3","2","2","16.77374999999999","[17.459999999999127,17.20499999999811,16.665000000000873,16.540000000000873,16.715000000000146,16.74499999999898,16.534999999999854,15.645000000000437,17.31999999999971,17.260000000002037,16.649999999997817,16.54500000000189]","12"
"-1","-1","RDK","80","19004","0.0-1.0-79.0","false","a,l","l","200","true","200","1","0","0.5","2","-1","1","600","400","white","gray","3","2","2","16.71124999999999","[17.165000000000873,16.099999999998545,16.150000000001455,17.125,16.30500000000029,17.94499999999971,16.469999999997526,16.530000000002474,16.770000000000437,15.954999999998108,16.450000000000728,17.56999999999971]","12"
"-1","-1","RDK","81","19223","0.0-1.0-80.0","false","a,l","l","200","true","200","1","0","0.5","2","-1","1","600","400","white","gray","3","2","2","16.717500000000047","[17.095000000001164,16.770000000000437,16.625,16.70499999999811,16.00500000000102,16.360000000000582,17.49499999999898,15.9900000000016,16.959999999999127,17.125,16.739999999997963,16.7400000000016]","12"
"-1","-1","RDK","82","19438","0.0-1.0-81.0","false","a,l","a","200","true","200","1","180","0.5","2","-1","1","600","400","white","gray","3","2","2","18.191363636363928","[17.540000000000873,16.19000000000233,15.969999999997526,36.210000000002765,14.554999999996653,15.580000000001746,17.720000000001164,16.224999999998545,17.264999999999418,16.56500000000233,16.284999999999854]","11"
"-1","-1","RDK","83","19654","0.0-1.0-82.0","false","a,l","a","200","true","200","1","180","0.5","2","-1","1","600","400","white","gray","3","2","2","16.684583333333347","[16.95499999999811,16.68500000000131,15.779999999998836,20.260000000002037,14.0099999999984,16.674999999999272,16.775000000001455,15.540000000000873,19.274999999997817,15.025000000001455,16.229999999999563,17.00500000000102]","12"
"-1","-1","RDK","84","19873","0.0-1.0-83.0","false","a,l","l","200","true","200","1","0","0.5","2","-1","1","600","400","white","gray","3","2","2","16.677916666666835","[17.455000000001746,16.484999999996944,16.215000000000146,17.110000000000582,17.12000000000262,15.429999999996653,17.460000000002765,16.899999999997817,16.010000000002037,17.299999999999272,16.584999999999127,16.06500000000233]","12"
"-1","-1","RDK","85","20088","0.0-1.0-84.0","false","a,l","l","200","true","200","1","0","0.5","2","-1","1","600","400","white","gray","3","2","2","16.714166666666642","[17.540000000000873,16.30500000000029,15.989999999997963,17.479999999999563,16.4800000000032,17.2699999999968,16.195000000003347,16.459999999999127,15.915000000000873,17.49499999999898,16.974999999998545,16.465000000000146]","12"
"-1","-1","RDK","86","20306","0.0-1.0-85.0","false","a,l","l","200","true","200","1","0","0.5","2","-1","1","600","400","white","gray","3","2","2","16.756666666666508","[17.80500000000029,16.764999999999418,16.544999999998254,16.18500000000131,16.264999999999418,17.56000000000131,16.540000000000873,16.81499999999869,16.915000000000873,16.44499999999971,15.68999999999869,17.549999999999272]","12"
"-1","-1","RDK","87","20523","0.0-1.0-86.0","false","a,l","l","200","true","200","1","0","0.5","2","-1","1","600","400","white","gray","3","2","2","16.702500000000025","[16.340000000000146,17.404999999998836,16.149999999997817,16.205000000001746,16.799999999999272,16.600000000002183,17.474999999998545,19.909999999999854,13.709999999999127,15.659999999999854,17.655000000002474,16.520000000000437]","12"
"-1","-1","RDK","88","20738","0.0-1.0-87.0","false","a,l","l","200","true","200","1","0","0.5","2","-1","1","600","400","white","gray","3","2","2","16.7195833333332","[16.209999999999127,17.709999999999127,16.799999999999272,21.87000000000262,11.430000000000291,16.465000000000146,16.68499999999767,16.69000000000233,15.954999999998108,17.400000000001455,16.770000000000437,16.649999999997817]","12"
"-1","-1","RDK","89","20954","0.0-1.0-88.0","false","a,l","l","200","true","200","1","0","0.5","2","-1","1","600","400","white","gray","3","2","2","16.678750000000036","[17.30999999999767,16.55500000000029,16.55000000000291,17.294999999998254,16.110000000000582,16.950000000000728,15.664999999997235,17.409999999999854,15.760000000002037,19.904999999998836,13.305000000000291,17.330000000001746]","12"
"-1","-1","RDK","90","21172","0.0-1.0-89.0","false","a,l","a","200","true","200","1","180","0.5","2","-1","1","600","400","white","gray","3","2","2","16.701666666666824","[17.18000000000029,15.520000000000437,17.540000000000873,17.399999999997817,15.534999999999854,16.49500000000262,17.424999999999272,15.8849999999984,16.87000000000262,17.2699999999968,16.81000000000131,16.4900000000016]","12"
"-1","-1","RDK","91","21389","0.0-1.0-90.0","false","a,l","a","200","true","200","1","180","0.5","2","-1","1","600","400","white","gray","3","2","2","16.683749999999844","[16.25500000000102,17.360000000000582,17.024999999997817,16.850000000002183,15.819999999999709,17.149999999997817,16.409999999999854,16.75,16.220000000001164,16.43500000000131,17.604999999999563,16.32499999999709]","12"
"-1","-1","RDK","92","21605","0.0-1.0-91.0","false","a,l","a","200","true","200","1","180","0.5","2","-1","1","600","400","white","gray","3","2","2","16.671250000000025","[20.235000000000582,13.399999999997817,15.705000000001746,17.139999999999418,16.479999999999563,17.3849999999984,16.520000000000437,16.840000000000146,16.540000000000873,16.834999999999127,16.235000000000582,16.7400000000016]","12"
"-1","-1","RDK","93","21822","0.0-1.0-92.0","false","a,l","a","200","true","200","1","180","0.5","2","-1","1","600","400","white","gray","3","2","2","16.69541666666646","[17.014999999999418,16.75499999999738,16.5,16.75500000000102,15.944999999999709,16.49500000000262,22.45499999999811,11.830000000001746,15.904999999998836,17.104999999999563,17.034999999999854,16.549999999999272]","12"
"-1","-1","RDK","94","22039","0.0-1.0-93.0","false","a,l","l","200","true","200","1","0","0.5","2","-1","1","600","400","white","gray","3","2","2","16.783749999999902","[16.979999999999563,17.529999999998836,22.715000000000146,10.75,16.56499999999869,16.715000000000146,17.459999999999127,16.6150000000016,15.174999999999272,17.42000000000189,16.799999999999272,16.68000000000029]","12"
"-1","-1","RDK","95","22253","0.0-1.0-94.0","false","a,l","a","200","true","200","1","180","0.5","2","-1","1","600","400","white","gray","3","2","2","16.761818181817944","[17.75499999999738,16.42500000000291,16.414999999997235,16.31500000000233,16.904999999998836,18.474999999998545,15.290000000000873,16.639999999999418,16.69499999999971,15.760000000002037,17.70499999999811]","11"
"-1","-1","RDK","96","22456","0.0-1.0-95.0","false","a,l","a","200","true","200","1","180","0.5","2","-1","1","600","400","white","gray","3","2","2","16.608333333333274","[16.970000000001164,16.81000000000131,16.57999999999811,16.61999999999898,17.7400000000016,15.909999999999854,15.360000000000582,17.31499999999869,16.840000000000146,16.895000000000437,16.724999999998545,15.534999999999854]","12"
"-1","-1","RDK","97","22672","0.0-1.0-96.0","false","a,l","l","200","true","200","1","0","0.5","2","-1","1","600","400","white","gray","3","2","2","16.714999999999844","[17.31499999999869,15.5,17.385000000002037,16.514999999999418,17.104999999999563,16.6349999999984,17.275000000001455,15.540000000000873,17.18999999999869,15.849999999998545,17.409999999999854,16.860000000000582]","12"
"-1","-1","RDK","98","22892","0.0-1.0-97.0","false","a,l","a","200","true","200","1","180","0.5","2","-1","1","600","400","white","gray","3","2","2","16.735416666666726","[17.290000000000873,16.520000000000437,16.659999999999854,16.174999999999272,16.860000000000582,17.099999999998545,16.540000000000873,16.74499999999898,16.69499999999971,16.715000000000146,16.270000000000437,17.25500000000102]","12"
"-1","-1","RDK","99","23106","0.0-1.0-98.0","false","a,l","l","200","true","200","1","0","0.5","2","-1","1","600","400","white","gray","3","2","2","16.77374999999999","[17.68500000000131,16.6349999999984,16.67000000000189,16.539999999997235,16.05000000000291,17.424999999999272,15.604999999999563,17.409999999999854,17.06999999999971,16.7400000000016,16.534999999999854,16.919999999998254]","12"
"-1","-1","RDK","100","23323","0.0-1.0-99.0","false","a,l","a","200","true","200","1","180","0.5","2","-1","1","600","400","white","gray","3","2","2","16.675833333333383","[15.510000000002037,15.994999999998981,22.75500000000102,11.829999999998108,16.4900000000016,16.614999999997963,16.8650000000016,16.404999999998836,16.705000000001746,15.8849999999984,17.534999999999854,17.520000000000437]","12"
"-1","-1","RDK","101","23542","0.0-1.0-100.0","false","a,l","a","200","true","200","1","180","0.5","2","-1","1","600","400","white","gray","3","2","2","16.729583333333114","[17.715000000000146,16.56999999999971,16.57999999999811,16.79500000000189,15.8849999999984,18.330000000001746,15.844999999997526,16.635000000002037,16.95499999999811,16.375,16.775000000001455,16.294999999998254]","12"
"-1","-1","RDK","102","23756","0.0-1.0-101.0","false","a,l","l","200","true","200","1","0","0.5","2","-1","1","600","400","white","gray","3","2","2","16.79916666666668","[18.090000000000146,16.50500000000102,16.43999999999869,16.389999999999418,16.79500000000189,16.964999999996508,16.88000000000102,15.909999999999854,17.13000000000102,16.770000000000437,16.659999999999854,17.05500000000029]","12"
"-1","-1","RDK","103","23973","0.0-1.0-102.0","false","a,l","a","200","true","200","1","180","0.5","2","-1","1","600","400","white","gray","3","2","2","16.71124999999999","[18.43999999999869,14.420000000001892,17.05999999999767,17.19499999999971,16.790000000000873,16.49499999999898,17.290000000000873,16.05500000000029,17.595000000001164,14.8849999999984,17.450000000000728,16.860000000000582]","12"
"-1","-1","RDK","104","24192","0.0-1.0-103.0","false","a,l","a","200","true","200","1","180","0.5","2","-1","1","600","400","white","gray","3","2","2","16.789583333333212","[18.099999999998545,16.710000000002765,16.524999999997817,16.034999999999854,16.485000000000582,17.5,16.360000000000582,16.989999999997963,16.955000000001746,16.700000000000728,15.774999999997817,17.340000000000146]","12"
"-1","-1","RDK","105","24407","0.0-1.0-104.0","false","a,l","l","200","true","200","1","0","0.5","2","-1","1","600","400","white","gray","3","2","2","16.75750000000001","[18.014999999999418,16.7400000000016,16.469999999997526,15.755000000001019,17.520000000000437,16.770000000000437,16.20499999999811,16.43000000000029,17.235000000000582,16.709999999999127,16.79500000000189,16.44499999999971]","12"
"-1","-1","RDK","106","24623","0.0-1.0-105.0","false","a,l","a","200","true","200","1","180","0.5","2","-1","1","600","400","white","gray","3","2","2","16.713750000000193","[17.155000000002474,15.43999999999869,17.38000000000102,17.12999999999738,16.655000000002474,16.729999999999563,16.56999999999971,17.43500000000131,15.889999999999418,15.7599999999984,17.400000000001455,17.020000000000437]","12"
"-1","-1","RDK","107","24839","0.0-1.0-106.0","false","a,l","l","200","true","200","1","0","0.5","2","-1","1","600","400","white","gray","3","2","2","17.528181818181938","[20.100000000002183,13.704999999998108,15.849999999998545,16.460000000002765,26.739999999997963,16.950000000000728,16,17.784999999999854,14.9900000000016,16.8849999999984,17.345000000001164]","11"
"-1","-1","RDK","108","25049","0.0-1.0-107.0","false","a,l","a","200","true","200","1","180","0.5","2","-1","1","600","400","white","gray","3","2","2","16.740416666666533","[17.215000000000146,17.625,15.514999999999418,16.534999999999854,18.049999999999272,15.330000000001746,21.529999999998836,12.639999999999418,15.799999999999272,17.475000000002183,16.174999999999272,16.99499999999898]","12"
"-1","-1","RDK","109","25268","0.0-1.0-108.0","false","a,l","a","200","true","200","1","180","0.5","2","-1","1","600","400","white","gray","3","2","2","15.926666666666884","[17.29500000000189,15.944999999999709,17.674999999999272,15.830000000001746,16.109999999996944,17.54500000000189,22.779999999998836,9.459999999999127,17.6150000000016,8.0099999999984,15.430000000000291,17.42500000000291]","12"
"-1","-1","RDK","110","25475","0.0-1.0-109.0","false","a,l","a","200","true","200","1","180","0.5","2","-1","1","600","400","white","gray","3","2","2","16.769583333333383","[18.034999999999854,16.44000000000233,16.739999999997963,16.014999999999418,16.68000000000029,16.404999999998836,17.325000000000728,16.44000000000233,17.31499999999869,16.459999999999127,16.834999999999127,16.54500000000189]","12"
"-1","-1","RDK","111","25690","0.0-1.0-110.0","false","a,l","a","200","true","200","1","180","0.5","2","-1","1","600","400","white","gray","3","2","2","16.727499999999964","[16.36999999999898,17.450000000000728,16.764999999999418,16.55500000000029,16.36999999999898,17.034999999999854,16.709999999999127,16.515000000003056,16.014999999999418,17.575000000000728,16.399999999997817,16.970000000001164]","12"
"-1","-1","RDK","112","25906","0.0-1.0-111.0","false","a,l","l","200","true","200","1","0","0.5","2","-1","1","600","400","white","gray","3","2","2","16.664166666666762","[17.350000000002183,16.274999999997817,16.79500000000189,16.604999999999563,16.889999999999418,16.63000000000102,16.05500000000029,16.860000000000582,16.99499999999898,16.724999999998545,15.795000000001892,16.99499999999898]","12"
"-1","-1","RDK","113","26125","0.0-1.0-112.0","false","a,l","l","200","true","200","1","0","0.5","2","-1","1","600","400","white","gray","3","2","2","16.734166666666777","[17.520000000000437,15.854999999999563,17.36999999999898,16.135000000002037,17.55500000000029,15.434999999997672,17.18500000000131,17.209999999999127,16.595000000001164,16.595000000001164,16.30500000000029,17.049999999999272]","12"
"-1","-1","RDK","114","26340","0.0-1.0-113.0","false","a,l","l","200","true","200","1","0","0.5","2","-1","1","600","400","white","gray","3","2","2","16.771666666666533","[17.044999999998254,17.56999999999971,15.835000000002765,17.289999999997235,16.070000000003347,19.044999999998254,15.145000000000437,16.200000000000728,16.274999999997817,17.42000000000189,17.044999999998254,16.31999999999971]","12"
"-1","-1","RDK","115","26555","0.0-1.0-114.0","false","a,l","l","200","true","200","1","0","0.5","2","-1","1","600","400","white","gray","3","2","2","16.791363636363794","[18.070000000003347,16.639999999999418,16.32499999999709,16.3550000000032,17.30500000000029,16.804999999996653,16.395000000000437,16.845000000001164,16.625,16.784999999999854,16.55500000000029]","11"
"-1","-1","RDK","116","26759","0.0-1.0-115.0","false","a,l","l","200","true","200","1","0","0.5","2","-1","1","600","400","white","gray","3","2","2","16.696249999999964","[17.049999999999272,16.719999999997526,16.350000000002183,15.979999999999563,17.05500000000029,16.43999999999869,17.095000000001164,17.18999999999869,16.74500000000262,16.489999999997963,18.375,14.8650000000016]","12"
"-1","-1","RDK","117","26975","0.0-1.0-116.0","false","a,l","l","200","true","200","1","0","0.5","2","-1","1","600","400","white","gray","3","2","2","16.785416666666606","[16.18000000000029,16.540000000000873,17.469999999997526,16.900000000001455,15.755000000001019,17.544999999998254,16.970000000001164,16.289999999997235,16.80000000000291,15.979999999999563,17.43000000000029,17.56499999999869]","12"
"-1","-1","RDK","118","27193","0.0-1.0-117.0","false","a,l","l","200","true","200","1","0","0.5","2","-1","1","600","400","white","gray","3","2","2","16.740833333333285","[17.984999999996944,17.290000000000873,15.209999999999127,16.75500000000102,16.81000000000131,17.485000000000582,16.764999999999418,16.349999999998545,16.68500000000131,17.154999999998836,15.965000000000146,16.43500000000131]","12"
"-1","-1","RDK","119","27408","0.0-1.0-118.0","false","a,l","a","200","true","200","1","180","0.5","2","-1","1","600","400","white","gray","3","2","2","16.741250000000036","[17.275000000001455,16.334999999999127,16.360000000000582,17.25500000000102,16.974999999998545,16.049999999999272,17.080000000001746,17.2599999999984,15.409999999999854,17.635000000002037,16.700000000000728,16.55999999999767]","12"
"-1","-1","RDK","120","27624","0.0-1.0-119.0","false","a,l","a","200","true","200","1","180","0.5","2","-1","1","600","400","white","gray","3","2","2","16.69833333333342","[17.169999999998254,15.4900000000016,18.06499999999869,16.715000000000146,15.514999999999418,17.3550000000032,16.479999999999563,16.779999999998836,16.75,16.69499999999971,16.6150000000016,16.75]","12"
"-1","-1","RDK","121","27841","0.0-1.0-120.0","false","a,l","a","200","true","200","1","180","0.5","2","-1","1","600","400","white","gray","3","2","2","16.62909090909108","[20.225000000002183,13.555000000000291,16.709999999999127,16.095000000001164,16.904999999998836,17.095000000001164,16.625,16.56499999999869,15.869999999998981,17.43500000000131,15.840000000000146]","11"
"-1","-1","RDK","122","28042","0.0-1.0-121.0","false","a,l","l","200","true","200","1","0","0.5","2","-1","1","600","400","white","gray","3","2","2","16.51250000000012","[14.104999999999563,17.570000000003347,16.5,16.524999999997817,16.700000000000728,16.299999999999272,16.354999999999563,16.3650000000016,17.18000000000029,17.149999999997817,15.944999999999709,17.455000000001746]","12"
"-1","-1","RDK","123","28258","0.0-1.0-122.0","false","a,l","a","200","true","200","1","180","0.5","2","-1","1","600","400","white","gray","3","2","2","16.740833333333285","[17.57999999999811,16.284999999999854,16.04500000000189,17.224999999998545,16.525000000001455,16.99499999999898,16.44499999999971,17.104999999999563,16.604999999999563,17.63000000000102,14.965000000000146,17.485000000000582]","12"
"-1","-1","RDK","124","28476","0.0-1.0-123.0","false","a,l","l","200","true","200","1","0","0.5","2","-1","1","600","400","white","gray","3","2","2","16.696666666666715","[17.235000000000582,16.8650000000016,16.224999999998545,15.930000000000291,17.43999999999869,15.905000000002474,17.45499999999811,16.450000000000728,16.904999999998836,16.600000000002183,16.840000000000146,16.5099999999984]","12"
"-1","-1","RDK","125","28691","0.0-1.0-124.0","false","a,l","a","200","true","200","1","180","0.5","2","-1","1","600","400","white","gray","3","2","2","16.73416666666647","[16.840000000000146,17.50499999999738,15.505000000001019,17.75500000000102,15.729999999999563,17.610000000000582,16.479999999999563,15.875,19.4900000000016,13.919999999998254,17.44499999999971,16.654999999998836]","12"
"-1","-1","RDK","126","28908","0.0-1.0-125.0","false","a,l","l","200","true","200","1","0","0.5","2","-1","1","600","400","white","gray","3","2","2","16.68708333333325","[16.94499999999971,16.55999999999767,15.755000000001019,17.330000000001746,16.395000000000437,17.524999999997817,16.610000000000582,16.270000000000437,17.159999999999854,16.229999999999563,15.924999999999272,17.540000000000873]","12"
"-1","-1","RDK","127","29126","0.0-1.0-126.0","false","a,l","a","200","true","200","1","180","0.5","2","-1","1","600","400","white","gray","3","2","2","16.686250000000047","[17,16.520000000000437,15.795000000001892,17.715000000000146,17.764999999999418,14.639999999999418,16.979999999999563,17.24499999999898,16.63000000000102,16.595000000001164,16.799999999999272,16.549999999999272]","12"
"-1","-1","RDK","128","29342","0.0-1.0-127.0","false","a,l","l","200","true","200","1","0","0.5","2","-1","1","600","400","white","gray","3","2","2","16.748333333333296","[15.979999999999563,17.165000000000873,16.729999999999563,16.040000000000873,17.32499999999709,16.80500000000029,16.75,16.345000000001164,16.24499999999898,17.3650000000016,16.614999999997963,17.6150000000016]","12"
"-1","-1","RDK","129","29558","0.0-1.0-128.0","false","a,l","l","200","true","200","1","0","0.5","2","-1","1","600","400","white","gray","3","2","2","16.73166666666687","[17.775000000001455,15.795000000001892,16.404999999998836,18.099999999998545,17.450000000000728,15.540000000000873,16.649999999997817,16.635000000002037,16.7599999999984,15.840000000000146,16.43000000000029,17.400000000001455]","12"
"-1","-1","RDK","130","29777","0.0-1.0-129.0","false","a,l","l","200","true","200","1","0","0.5","2","-1","1","600","400","white","gray","3","2","2","16.695416666666762","[16.455000000001746,16.24499999999898,17.700000000000728,15.614999999997963,17.56500000000233,15.950000000000728,17.474999999998545,16.739999999997963,16.820000000003347,16.3849999999984,16.86999999999898,16.525000000001455]","12"
"-1","-1","RDK","131","29991","0.0-1.0-130.0","false","a,l","l","200","true","200","1","0","0.5","2","-1","1","600","400","white","gray","3","2","2","16.714583333333394","[16.42000000000189,17.3849999999984,16.779999999998836,15.805000000000291,17.375,16.63000000000102,15.709999999999127,16.81500000000233,19.209999999999127,14.055000000000291,17.88000000000102,16.5099999999984]","12"
"-1","-1","RDK","132","30207","0.0-1.0-131.0","false","a,l","l","200","true","200","1","0","0.5","2","-1","1","600","400","white","gray","3","2","2","16.681249999999938","[17.145000000000437,16.614999999997963,16.61999999999898,16.290000000000873,17.595000000001164,15.959999999999127,16.889999999999418,16.845000000001164,16.599999999998545,16.595000000001164,15.665000000000873,17.354999999999563]","12"
"-1","-1","RDK","133","30427","0.0-1.0-132.0","false","a,l","l","200","true","200","1","0","0.5","2","-1","1","600","400","white","gray","3","2","2","16.74499999999989","[17.474999999998545,16.350000000002183,16.049999999999272,18.86999999999898,14.430000000000291,16.69000000000233,17.349999999998545,16.950000000000728,16.700000000000728,16.524999999997817,16.275000000001455,17.274999999997817]","12"
"-1","-1","RDK","134","30642","0.0-1.0-133.0","false","a,l","l","200","true","200","1","0","0.5","2","-1","1","600","400","white","gray","3","2","2","16.795416666666824","[17.325000000000728,17.584999999999127,16.125,18.13000000000102,15.485000000000582,16.849999999998545,16.645000000000437,18.470000000001164,14.2599999999984,17.29500000000189,16.81999999999971,16.55500000000029]","12"
"-1","-1","RDK","135","30862","0.0-1.0-134.0","false","a,l","a","200","true","200","1","180","0.5","2","-1","1","600","400","white","gray","3","2","2","16.66333333333326","[17.090000000000146,16.474999999998545,16.67500000000291,16.159999999999854,16.75,17.044999999998254,17.18999999999869,16.215000000000146,17.04500000000189,15.459999999999127,16.549999999999272,17.30500000000029]","12"
"-1","-1","RDK","136","31077","0.0-1.0-135.0","false","a,l","l","200","true","200","1","0","0.5","2","-1","1","600","400","white","gray","3","2","2","16.803333333333587","[21.12000000000262,12.744999999998981,15.979999999999563,16.705000000001746,17.389999999999418,15.704999999998108,17.385000000002037,16.974999999998545,16.665000000000873,16.604999999999563,16.799999999999272,17.56500000000233]","12"
"-1","-1","RDK","137","31292","0.0-1.0-136.0","false","a,l","l","200","true","200","1","0","0.5","2","-1","1","600","400","white","gray","3","2","2","16.648333333333238","[16.24499999999898,17.529999999998836,15.81000000000131,17.18500000000131,17.12999999999738,16.8550000000032,16.669999999998254,16.020000000000437,16.400000000001455,17.474999999998545,16.735000000000582,15.724999999998545]","12"
"-1","-1","RDK","138","31512","0.0-1.0-137.0","false","a,l","l","200","true","200","1","0","0.5","2","-1","1","600","400","white","gray","3","2","2","16.653750000000098","[17.13000000000102,16.55500000000029,17.19499999999971,15.534999999999854,17.264999999999418,16.715000000000146,16.705000000001746,16.770000000000437,16.659999999999854,16.544999999998254,15.900000000001455,16.86999999999898]","12"
"-1","-1","RDK","139","31727","0.0-1.0-138.0","false","a,l","a","200","true","200","1","180","0.5","2","-1","1","600","400","white","gray","3","2","2","16.6891666666664","[17.06499999999869,16.514999999999418,17.705000000001746,15.340000000000146,17.804999999996653,15,17.205000000001746,17.13000000000102,16.55999999999767,16.62000000000262,16.86999999999898,16.45499999999811]","12"
"-1","-1","RDK","140","31942","0.0-1.0-139.0","false","a,l","a","200","true","200","1","180","0.5","2","-1","1","600","400","white","gray","3","2","2","16.65666666666675","[16.350000000002183,17.020000000000437,17.034999999999854,15.62999999999738,18.29500000000189,15.604999999999563,17.165000000000873,17.340000000000146,15.969999999997526,16.62000000000262,16.81499999999869,16.034999999999854]","12"
"-1","-1","RDK","141","32162","0.0-1.0-140.0","false","a,l","l","200","true","200","1","0","0.5","2","-1","1","600","400","white","gray","3","2","2","16.664166666666762","[17.514999999999418,16.36999999999898,16.705000000001746,17.43999999999869,15.720000000001164,16.7400000000016,17.289999999997235,16.00500000000102,16.709999999999127,15.764999999999418,17.575000000000728,16.135000000002037]","12"
"-1","-1","RDK","142","32377","0.0-1.0-141.0","false","a,l","a","200","true","200","1","180","0.5","2","-1","1","600","400","white","gray","3","2","2","16.80708333333314","[18.039999999997235,15.395000000000437,16.095000000001164,16.215000000000146,17.625,16.599999999998545,16.900000000001455,16.6150000000016,16.484999999996944,17.650000000001455,15.729999999999563,18.334999999999127]","12"
"-1","-1","RDK","143","32592","0.0-1.0-142.0","false","a,l","a","200","true","200","1","180","0.5","2","-1","1","600","400","white","gray","3","2","2","16.71083333333354","[16.200000000000728,17.43999999999869,16.950000000000728,15.470000000001164,17.040000000000873,17.5099999999984,15.900000000001455,17.25,17.200000000000728,16.164999999997235,16.74500000000262,16.659999999999854]","12"
"-1","-1","RDK","144","32809","0.0-1.0-143.0","false","a,l","l","200","true","200","1","0","0.5","2","-1","1","600","400","white","gray","3","2","2","16.634166666666715","[16.159999999999854,17.135000000002037,21.00500000000102,12.305000000000291,17.06999999999971,16.989999999997963,16.419999999998254,16.55999999999767,16.705000000001746,16.739999999997963,16.56500000000233,15.955000000001746]","12"
"-1","-1","RDK","145","33027","0.0-1.0-144.0","false","a,l","a","200","true","200","1","180","0.5","2","-1","1","600","400","white","gray","3","2","2","16.69749999999961","[17.19499999999971,16.525000000001455,15.944999999999709,17.424999999995634,16.55500000000029,15.654999999998836,17.235000000000582,18.12000000000262,15.010000000002037,17.349999999998545,16.80999999999767,16.544999999998254]","12"
"-1","-1","RDK","146","33242","0.0-1.0-145.0","false","a,l","a","200","true","200","1","180","0.5","2","-1","1","600","400","white","gray","3","2","2","16.719583333332896","[16.110000000000582,17.224999999998545,17.174999999995634,16.06999999999971,17.12000000000262,16.8550000000032,16.154999999998836,16.07499999999709,16.75,17.385000000002037,17.025000000001455,16.689999999995052]","12"
"-1","-1","RDK","147","33459","0.0-1.0-146.0","false","a,l","a","200","true","200","1","180","0.5","2","-1","1","600","400","white","gray","3","2","2","16.676250000000437","[17.36500000000524,16.334999999999127,16.94999999999709,15.805000000000291,17.49500000000262,16.82499999999709,16.660000000003492,16.539999999993597,16.75,16.665000000000873,16.630000000004657,16.095000000001164]","12"
"-1","-1","RDK","148","33677","0.0-1.0-147.0","false","a,l","a","200","true","200","1","180","0.5","2","-1","1","600","400","white","gray","3","2","2","16.68458333333365","[17.264999999999418,16.215000000003783,16.674999999995634,16.43000000000029,17.080000000001746,16.214999999996508,16.470000000001164,17.24000000000524,16.189999999995052,17.255000000004657,16.44499999999971,16.735000000000582]","12"
"-1","-1","RDK","149","33893","0.0-1.0-148.0","false","a,l","a","200","true","200","1","180","0.5","2","-1","1","600","400","white","gray","3","2","2","16.72875000000022","[16.260000000002037,17.075000000004366,17.114999999997963,16.635000000002037,16.31999999999971,17.25,16.57499999999709,16.489999999997963,15.80000000000291,17.964999999996508,16.360000000000582,16.900000000001455]","12"
"-1","-1","RDK","150","34113","0.0-1.0-149.0","false","a,l","a","200","true","200","1","180","0.5","2","-1","1","600","400","white","gray","3","2","2","16.60375000000022","[19.660000000003492,13.69999999999709,16.260000000002037,16.110000000000582,17.375,16.955000000001746,16.45499999999447,16.69499999999971,17.285000000003492,15.62999999999738,17.035000000003492,16.084999999999127]","12"
"-1","-1","RDK","151","34327","0.0-1.0-150.0","false","a,l","a","200","true","200","1","180","0.5","2","-1","1","600","400","white","gray","3","2","2","16.732916666666522","[17.010000000002037,16.534999999996217,16.67500000000291,15.849999999998545,18.0199999999968,16.12000000000262,16.125,17.224999999998545,16.340000000003783,16.994999999995343,16.970000000001164,16.93000000000029]","12"
"-1","-1","RDK","152","34542","0.0-1.0-151.0","false","a,l","a","200","true","200","1","180","0.5","2","-1","1","600","400","white","gray","3","2","2","16.68041666666674","[16.395000000004075,18.07499999999709,16.375,16.260000000002037,16.650000000001455,17.244999999995343,16.68000000000029,15.845000000001164,16.410000000003492,17.18499999999767,17.235000000000582,15.809999999997672]","12"
"-1","-1","RDK","153","34763","0.0-1.0-152.0","false","a,l","l","200","true","200","1","0","0.5","2","-1","1","600","400","white","gray","3","2","2","16.6529166666672","[17.30500000000029,16.525000000001455,16.24500000000262,16.12999999999738,17.404999999998836,16.845000000001164,16.720000000001164,16.845000000001164,15.769999999996799,16.380000000004657,17.154999999998836,16.510000000002037]","12"
"-1","-1","RDK","154","34978","0.0-1.0-153.0","false","a,l","l","200","true","200","1","0","0.5","2","-1","1","600","400","white","gray","3","2","2","16.69041666666696","[16.99500000000262,16.80500000000029,16.485000000000582,16.470000000001164,16.55500000000029,17.709999999999127,15.529999999998836,17.19999999999709,16.520000000004075,17.0199999999968,16.17500000000291,16.81999999999971]","12"
"-1","-1","RDK","155","35191","0.0-1.0-154.0","false","a,l","a","200","true","200","1","180","0.5","2","-1","1","600","400","white","gray","3","2","2","16.77545454545444","[17.19499999999971,16.74500000000262,16.37999999999738,17.5199999999968,16.67000000000553,16.674999999995634,16.669999999998254,16.585000000006403,15.689999999995052,17.525000000001455,16.875]","11"
"-1","-1","RDK","156","35396","0.0-1.0-155.0","false","a,l","a","200","true","200","1","180","0.5","2","-1","1","600","400","white","gray","3","2","2","16.682500000000193","[16.42000000000553,16.80500000000029,16.375,16.30500000000029,16.13499999999476,17.56500000000233,16.81999999999971,16.349999999998545,16.94000000000233,16.69999999999709,17.67000000000553,16.104999999995925]","12"
"-1","-1","RDK","157","35610","0.0-1.0-156.0","false","a,l","a","200","true","200","1","180","0.5","2","-1","1","600","400","white","gray","3","2","2","16.761666666666617","[17.674999999995634,16.87000000000262,16.05999999999767,17.42500000000291,16.080000000001746,17.409999999996217,15.970000000001164,16.25499999999738,17.525000000001455,16.580000000001746,16.635000000002037,16.654999999998836]","12"
"-1","-1","RDK","158","35826","0.0-1.0-157.0","false","a,l","l","200","true","200","1","0","0.5","2","-1","1","600","400","white","gray","3","2","2","16.667083333333114","[17.05500000000029,16.75,16.214999999996508,17.1449999999968,15.845000000001164,17.380000000004657,17.20499999999447,16.06999999999971,16.700000000004366,15.654999999998836,17.514999999999418,16.470000000001164]","12"
"-1","-1","RDK","159","36046","0.0-1.0-158.0","false","a,l","a","200","true","200","1","180","0.5","2","-1","1","600","400","white","gray","3","2","2","16.76250000000012","[17.779999999998836,16.360000000000582,17.764999999999418,15.415000000000873,16.229999999995925,17.090000000003783,16.860000000000582,16.584999999999127,16.669999999998254,16.845000000001164,16.74500000000262,16.80500000000029]","12"
"-1","-1","RDK","160","36261","0.0-1.0-159.0","false","a,l","l","200","true","200","1","0","0.5","2","-1","1","600","400","white","gray","3","2","2","16.774583333333187","[18.05500000000029,16.514999999999418,16.169999999998254,16.610000000000582,17.084999999999127,17.085000000006403,16.104999999995925,16.25499999999738,18.67500000000291,15.724999999998545,16.514999999999418,16.5]","12"
"-1","-1","RDK","161","36477","0.0-1.0-160.0","false","a,l","a","200","true","200","1","180","0.5","2","-1","1","600","400","white","gray","3","2","2","16.70291666666647","[17.044999999998254,16.709999999999127,16.270000000004075,17.860000000000582,15.82999999999447,16.530000000006112,17.314999999995052,16.12000000000262,16.330000000001746,17.834999999999127,15.345000000001164,17.244999999995343]","12"
"-1","-1","RDK","162","36693","0.0-1.0-161.0","false","a,l","l","200","true","200","1","0","0.5","2","-1","1","600","400","white","gray","3","2","2","16.695833333333212","[17.034999999996217,16.580000000001746,17.029999999998836,16.160000000003492,15.985000000000582,17.289999999993597,17.165000000000873,16.17000000000553,16.875,16.654999999998836,18.00999999999476,15.395000000004075]","12"
"-1","-1","RDK","163","36911","0.0-1.0-162.0","false","a,l","l","200","true","200","1","0","0.5","2","-1","1","600","400","white","gray","3","2","2","16.79958333333343","[18.084999999999127,16.035000000003492,20.764999999999418,14.114999999997963,15.770000000004075,15.809999999997672,16.43000000000029,16.909999999996217,17.580000000001746,16.580000000001746,16.659999999996217,16.8550000000032]","12"
"-1","-1","RDK","164","37127","0.0-1.0-163.0","false","a,l","l","200","true","200","1","0","0.5","2","-1","1","600","400","white","gray","3","2","2","16.708333333333332","[17.014999999999418,15.540000000000873,17.094999999993888,17.29500000000553,16.63499999999476,16.3550000000032,17.014999999999418,16.05500000000029,17.25499999999738,15.779999999998836,17.17000000000553,17.290000000000873]","12"
"-1","-1","RDK","165","37346","0.0-1.0-164.0","false","a,l","a","200","true","200","1","180","0.5","2","-1","1","600","400","white","gray","3","2","2","16.70041666666657","[17.575000000004366,16.56999999999971,16.174999999995634,16.400000000001455,16.145000000004075,19.114999999997963,14.375,17.44999999999709,16.6050000000032,17.705000000001746,14.744999999995343,17.544999999998254]","12"
"-1","-1","RDK","166","37559","0.0-1.0-165.0","false","a,l","l","200","true","200","1","0","0.5","2","-1","1","600","400","white","gray","3","2","2","16.791363636363133","[20.964999999996508,13.724999999998545,16.630000000004657,16.389999999999418,17.994999999995343,14.625,17.645000000004075,16.12000000000262,17.104999999995925,16.285000000003492,17.219999999993888]","11"
"-1","-1","RDK","167","37764","0.0-1.0-166.0","false","a,l","l","200","true","200","1","0","0.5","2","-1","1","600","400","white","gray","3","2","2","16.585416666666788","[16.339999999996508,16.55000000000291,17.205000000001746,15.419999999998254,17.345000000001164,16.790000000000873,16.635000000002037,16.52499999999418,16.660000000003492,16.084999999999127,16.534999999996217,16.935000000004948]","12"
"-1","-1","RDK","168","37979","0.0-1.0-167.0","false","a,l","a","200","true","200","1","180","0.5","2","-1","1","600","400","white","gray","3","2","2","16.789583333333212","[17.020000000004075,16.6449999999968,16.595000000001164,16.650000000001455,16.689999999995052,15.775000000001455,17.19499999999971,17.154999999998836,16.485000000000582,16.735000000000582,16.459999999999127,18.06999999999971]","12"
"-1","-1","RDK","169","38192","0.0-1.0-168.0","false","a,l","a","200","true","200","1","180","0.5","2","-1","1","600","400","white","gray","3","2","2","16.748636363636418","[16.529999999998836,17.479999999995925,18.825000000004366,14.784999999996217,15.75,17.43000000000029,16.42500000000291,16.909999999996217,15.845000000001164,17.5,16.755000000004657]","11"
"-1","-1","RDK","170","38397","0.0-1.0-169.0","false","a,l","l","200","true","200","1","0","0.5","2","-1","1","600","400","white","gray","3","2","2","16.66750000000017","[16.830000000001746,16.42500000000291,16.489999999997963,17,17.799999999995634,15.410000000003492,17.67500000000291,15.625,16.719999999993888,16.80000000000291,17.364999999997963,15.87000000000262]","12"
"-1","-1","RDK","171","38611","0.0-1.0-170.0","false","a,l","a","200","true","200","1","180","0.5","2","-1","1","600","400","white","gray","3","2","2","16.801818181818156","[18.029999999998836,17.56999999999971,14.44999999999709,17.30500000000029,18.035000000003492,15.034999999996217,16.279999999998836,17.22500000000582,16.789999999993597,17.47500000000582,16.625]","11"
"-1","-1","RDK","172","38815","0.0-1.0-171.0","false","a,l","a","200","true","200","1","180","0.5","2","-1","1","600","400","white","gray","3","2","2","16.511666666666617","[14.044999999998254,17.55000000000291,15.819999999999709,17.159999999996217,17.1050000000032,16.75499999999738,16.709999999999127,15.389999999999418,17.935000000004948,16.50499999999738,16.034999999996217,17.130000000004657]","12"
"-1","-1","RDK","173","39027","0.0-1.0-172.0","false","a,l","l","200","true","200","1","0","0.5","2","-1","1","600","400","white","gray","3","2","2","16.65083333333314","[17.19000000000233,16.470000000001164,16.64999999999418,16.825000000004366,16.68000000000029,15.775000000001455,17.13499999999476,17.165000000000873,16.360000000000582,17.834999999999127,15.740000000005239,15.984999999993306]","12"
"-1","-1","RDK","174","39244","0.0-1.0-173.0","false","a,l","l","200","true","200","1","0","0.5","2","-1","1","600","400","white","gray","3","2","2","16.70208333333297","[16.5199999999968,17.160000000003492,16.854999999995925,15.405000000006112,17.50999999999476,16.900000000001455,16.205000000001746,17.2699999999968,15.944999999999709,17.160000000003492,16.735000000000582,16.75999999999476]","12"
"-1","-1","RDK","175","39460","0.0-1.0-174.0","false","a,l","l","200","true","200","1","0","0.5","2","-1","1","600","400","white","gray","3","2","2","16.712083333333187","[16.669999999998254,16.94499999999971,16.2699999999968,17.42000000000553,17.034999999996217,16.69000000000233,16.8949999999968,16.415000000000873,16.19499999999971,17.11500000000524,15.87999999999738,17.014999999999418]","12"
"-1","-1","RDK","176","39680","0.0-1.0-175.0","false","a,l","a","200","true","200","1","180","0.5","2","-1","1","600","400","white","gray","3","2","2","16.637916666667177","[17.17000000000553,15.869999999995343,16.81500000000233,16.654999999998836,16.885000000002037,16.19499999999971,17.69499999999971,16.514999999999418,16.764999999999418,17.1050000000032,16.06999999999971,15.915000000000873]","12"
"-1","-1","RDK","177","39894","0.0-1.0-176.0","false","a,l","l","200","true","200","1","0","0.5","2","-1","1","600","400","white","gray","3","2","2","16.704999999999927","[16.2300000000032,17.43000000000029,16.719999999993888,16.630000000004657,16.564999999995052,16.94499999999971,16.79500000000553,16.314999999995052,17.959999999999127,15.505000000004657,16.6449999999968,16.720000000001164]","12"
"-1","-1","RDK","178","40111","0.0-1.0-177.0","false","a,l","l","200","true","200","1","0","0.5","2","-1","1","600","400","white","gray","3","2","2","16.68791666666645","[17.44000000000233,16.479999999995925,15.764999999999418,17.19000000000233,16.49500000000262,17.299999999995634,16.650000000001455,16.62000000000262,18.5,14.909999999996217,15.590000000003783,17.314999999995052]","12"
"-1","-1","RDK","179","40330","0.0-1.0-178.0","false","a,l","a","200","true","200","1","180","0.5","2","-1","1","600","400","white","gray","3","2","2","16.684166666666595","[17.68000000000029,15.95499999999447,16.74000000000524,18.69499999999971,15.07499999999709,15.785000000003492,17.314999999995052,17.99500000000262,15.169999999998254,17.110000000000582,16.845000000001164,15.845000000001164]","12"
"-1","-1","RDK","180","40545","0.0-1.0-179.0","false","a,l","a","200","true","200","1","180","0.5","2","-1","1","600","400","white","gray","3","2","2","16.70583333333343","[19.55500000000029,13.944999999999709,16.94499999999971,16.69000000000233,16.705000000001746,18.354999999995925,15.020000000004075,16.464999999996508,16.67500000000291,16.875,16.635000000002037,16.604999999995925]","12"
"-1","-1","RDK","181","40762","0.0-1.0-180.0","false","a,l","a","200","true","200","1","180","0.5","2","-1","1","600","400","white","gray","3","2","2","16.792499999999563","[17.089999999996508,16.599999999998545,15.955000000001746,16.785000000003492,16.494999999995343,17.37000000000262,16.735000000000582,15.599999999998545,17.580000000001746,16.81999999999971,15.584999999999127,18.8949999999968]","12"
"-1","-1","RDK","182","40980","0.0-1.0-181.0","false","a,l","l","200","true","200","1","0","0.5","2","-1","1","600","400","white","gray","3","2","2","16.700833333333623","[17.060000000004948,16.89999999999418,16.405000000006112,16.089999999996508,16.44000000000233,16.529999999998836,17.19000000000233,17.214999999996508,16.584999999999127,18.255000000004657,14.344999999993888,17.395000000004075]","12"
"-1","-1","RDK","183","41195","0.0-1.0-182.0","false","a,l","a","200","true","200","1","180","0.5","2","-1","1","600","400","white","gray","3","2","2","16.782083333332896","[17.18000000000029,17.389999999999418,15.894999999996799,17.540000000000873,16.764999999999418,16.540000000000873,16.705000000001746,15.610000000000582,16.834999999999127,17.62999999999738,16.770000000004075,16.52499999999418]","12"
"-1","-1","RDK","184","41411","0.0-1.0-183.0","false","a,l","l","200","true","200","1","0","0.5","2","-1","1","600","400","white","gray","3","2","2","16.668333333333674","[17.215000000003783,16.584999999999127,17.364999999997963,15.385000000002037,16.909999999996217,17.275000000001455,16.735000000000582,16.0199999999968,16.075000000004366,17.56500000000233,16.744999999995343,16.145000000004075]","12"
"-1","-1","RDK","185","41628","0.0-1.0-184.0","false","a,l","a","200","true","200","1","180","0.5","2","-1","1","600","400","white","gray","3","2","2","16.714166666666642","[17.220000000001164,16.584999999999127,15.87000000000262,17.55500000000029,15.479999999995925,16.735000000000582,17.270000000004075,17.1449999999968,16.770000000004075,16.584999999999127,16.260000000002037,17.094999999993888]","12"
"-1","-1","RDK","186","41845","0.0-1.0-185.0","false","a,l","a","200","true","200","1","180","0.5","2","-1","1","600","400","white","gray","3","2","2","16.72749999999966","[16.19999999999709,17.43000000000029,17.160000000003492,16.404999999998836,16.604999999995925,16.840000000003783,16.364999999997963,15.94999999999709,16.715000000003783,17.489999999997963,16.8550000000032,16.714999999996508]","12"
"-1","-1","RDK","187","42061","0.0-1.0-186.0","false","a,l","a","200","true","200","1","180","0.5","2","-1","1","600","400","white","gray","3","2","2","16.667916666666617","[17.474999999998545,16.43000000000029,16.909999999996217,15.770000000004075,17.419999999998254,17.535000000003492,15.154999999998836,17.239999999997963,16.2699999999968,17.025000000001455,16.669999999998254,16.11500000000524]","12"
"-1","-1","RDK","188","42280","0.0-1.0-187.0","false","a,l","l","200","true","200","1","0","0.5","2","-1","1","600","400","white","gray","3","2","2","16.724999999999756","[17.209999999999127,16.56999999999971,16.669999999998254,15.705000000001746,16.705000000001746,17.19499999999971,16.660000000003492,17.139999999999418,16.119999999995343,16.915000000000873,16.904999999998836,16.904999999998836]","12"
"-1","-1","RDK","189","42495","0.0-1.0-188.0","false","a,l","l","200","true","200","1","0","0.5","2","-1","1","600","400","white","gray","3","2","2","16.738333333333383","[16.50499999999738,17.4800000000032,16.610000000000582,16.56999999999971,17.50499999999738,16.135000000002037,16.68000000000029,16.089999999996508,16.69499999999971,17.67500000000291,17.69999999999709,15.215000000003783]","12"
"-1","-1","RDK","190","42711","0.0-1.0-189.0","false","a,l","l","200","true","200","1","0","0.5","2","-1","1","600","400","white","gray","3","2","2","16.65333333333365","[17.264999999999418,16.72500000000582,15.94999999999709,16.455000000001746,17.50999999999476,16.67500000000291,16.775000000001455,16.589999999996508,16.69499999999971,16.525000000001455,16.74500000000262,15.930000000000291]","12"
"-1","-1","RDK","191","42930","0.0-1.0-190.0","false","a,l","a","200","true","200","1","180","0.5","2","-1","1","600","400","white","gray","3","2","2","16.70624999999988","[17.044999999998254,16.530000000006112,16.63499999999476,15.985000000000582,16.635000000002037,17.409999999996217,16.37000000000262,16.94000000000233,16.529999999998836,16.989999999997963,16.520000000004075,16.88499999999476]","12"
"-1","-1","RDK","192","43149","0.0-1.0-191.0","false","a,l","a","200","true","200","1","180","0.5","2","-1","1","600","400","white","gray","3","2","2","16.707083333333383","[16.860000000000582,18.415000000000873,15.049999999995634,16.790000000000873,15.864999999997963,17.660000000003492,15.724999999998545,17.330000000001746,15.940000000002328,17.544999999998254,17.364999999997963,15.940000000002328]","12"
"-1","-1","RDK","193","43366","0.0-1.0-192.0","false","a,l","l","200","true","200","1","0","0.5","2","-1","1","600","400","white","gray","3","2","2","16.648749999999684","[17.290000000000873,16.650000000001455,15.569999999999709,16.779999999998836,17.595000000001164,16.875,16.354999999995925,16.660000000003492,16.669999999998254,15.974999999998545,16.37000000000262,16.994999999995343]","12"
"-1","-1","RDK","194","43581","0.0-1.0-193.0","false","a,l","l","200","true","200","1","0","0.5","2","-1","1","600","400","white","gray","3","2","2","16.71833333333355","[17.11500000000524,16.464999999996508,16.114999999997963,17.19000000000233,16.985000000000582,17.30500000000029,16.56999999999971,15.625,17,16.82499999999709,16.345000000001164,17.080000000001746]","12"
"-1","-1","RDK","195","43796","0.0-1.0-194.0","false","a,l","a","200","true","200","1","180","0.5","2","-1","1","600","400","white","gray","3","2","2","16.655416666666497","[19.970000000001164,13.364999999997963,16.770000000004075,16.94999999999709,16.94999999999709,16.345000000001164,17.264999999999418,15.630000000004657,16.220000000001164,18.82499999999709,15.525000000001455,16.049999999995634]","12"
"-1","-1","RDK","196","44011","0.0-1.0-195.0","false","a,l","l","200","true","200","1","0","0.5","2","-1","1","600","400","white","gray","3","2","2","16.691249999999854","[17.770000000004075,16.5199999999968,15.75,16.989999999997963,17.895000000004075,15.885000000002037,16.729999999995925,16.860000000000582,15.830000000001746,17.544999999998254,16.580000000001746,15.939999999995052]","12"
"-1","-1","RDK","197","44231","0.0-1.0-196.0","false","a,l","l","200","true","200","1","0","0.5","2","-1","1","600","400","white","gray","3","2","2","16.701250000000073","[17.29500000000553,15.934999999997672,17.400000000001455,17.345000000001164,15.059999999997672,16.400000000001455,18.084999999999127,15.82499999999709,17.42000000000553,16.389999999999418,16.439999999995052,16.81999999999971]","12"
"-1","-1","RDK","198","44446","0.0-1.0-197.0","false","a,l","l","200","true","200","1","0","0.5","2","-1","1","600","400","white","gray","3","2","2","16.70291666666647","[16.669999999998254,16.580000000001746,16.260000000002037,17.534999999996217,16.075000000004366,17.50499999999738,15.989999999997963,16.35000000000582,16.68499999999767,17.57499999999709,15.47500000000582,17.734999999993306]","12"
"-1","-1","RDK","199","44666","0.0-1.0-198.0","false","a,l","a","200","true","200","1","180","0.5","2","-1","1","600","400","white","gray","3","2","2","16.620416666666642","[16.095000000001164,17.325000000004366,16.125,16.32999999999447,17.67500000000291,16.705000000001746,16.68000000000029,16.404999999998836,16.830000000001746,16.69499999999971,16.619999999995343,15.959999999999127]","12"
"-1","-1","RDK","200","44884","0.0-1.0-199.0","false","a,l","l","200","true","200","1","0","0.5","2","-1","1","600","400","white","gray","3","2","2","16.70041666666657","[17.119999999995343,16.529999999998836,17.845000000001164,14.735000000000582,17.125,16.330000000001746,16.479999999995925,17.720000000001164,16.62000000000262,16.485000000000582,16.69499999999971,16.720000000001164]","12"
