rt,key_press,trial_type,trial_index,time_elapsed,internal_node_id,correct,choices,correct_choice,trial_duration,response_ends_trial,number_of_dots,number_of_sets,coherent_direction,coherence,dot_radius,dot_life,move_distance,aperture_width,aperture_height,dot_color,background_color,RDK_type,aperture_type,reinsert_type,frame_rate,frame_rate_array,number_of_frames,
1245,13,text,0,1247,0.0-0.0,,,,,,,,,,,,,,,,,,,,,,,chrome
-1,-1,RDK,1,2458,0.0-1.0-0.0,FALSE,"a,l",l,200,TRUE,200,1,0,0.5,2,-1,1,600,400,white,gray,3,2,2,16.77666667,"[21.829999999999927,12.154999999999745,16.425000000000182,18.490000000000236,15.485000000000127,16.074999999999818,16.394999999999982,16.625,16.670000000000073,16.81999999999971,16.815000000000055,17.534999999999854]",12,
-1,-1,RDK,2,2672,0.0-1.0-1.0,FALSE,"a,l",l,200,TRUE,200,1,0,0.5,2,-1,1,600,400,white,gray,3,2,2,16.75136364,"[17.454999999999927,16.600000000000364,16.534999999999854,16.769999999999982,16.75500000000011,17.394999999999982,16.664999999999964,15.920000000000073,17.2800000000002,17.234999999999673,15.6550000000002]",11,
-1,-1,RDK,3,2875,0.0-1.0-2.0,FALSE,"a,l",a,200,TRUE,200,1,180,0.5,2,-1,1,600,400,white,gray,3,2,2,16.59208333,"[15.769999999999982,17.11499999999978,16.125000000000455,16.68499999999949,16.980000000000473,16.329999999999927,16.730000000000018,16.669999999999618,17.5900000000006,16.61999999999989,15.849999999999909,16.639999999999873]",12,
-1,-1,RDK,4,3091,0.0-1.0-3.0,FALSE,"a,l",l,200,TRUE,200,1,0,0.5,2,-1,1,600,400,white,gray,3,2,2,16.72583333,"[17.159999999999854,16.565000000000055,16.735000000000127,16.75,17.609999999999673,16.9350000000004,15.734999999999673,16.329999999999927,16.650000000000546,16.919999999999618,16.675000000000182,16.644999999999982]",12,
-1,-1,RDK,5,3308,0.0-1.0-4.0,FALSE,"a,l",a,200,TRUE,200,1,180,0.5,2,-1,1,600,400,white,gray,3,2,2,16.71416667,"[17.24499999999989,16.5600000000004,16.524999999999636,16.75,16.72499999999991,17.02500000000009,16.264999999999873,16.920000000000073,17.690000000000055,15.574999999999818,16.595000000000255,16.695000000000164]",12,
-1,-1,RDK,6,3525,0.0-1.0-5.0,FALSE,"a,l",a,200,TRUE,200,1,180,0.5,2,-1,1,600,400,white,gray,3,2,2,16.71083333,"[17.120000000000346,16.454999999999472,16.760000000000673,16.725000000000364,16.524999999999636,16.70999999999958,16.7150000000006,16.674999999999272,16.654999999999745,17.540000000000873,15.904999999999745,16.74499999999989]",12,
-1,-1,RDK,7,3741,0.0-1.0-6.0,FALSE,"a,l",a,200,TRUE,200,1,180,0.5,2,-1,1,600,400,white,gray,3,2,2,16.69958333,"[16.860000000000582,16.644999999999527,16.765000000000327,16.594999999999345,16.790000000000873,17.37499999999909,15.9350000000004,16.6850000000004,16.609999999999673,16.674999999999272,16.640000000001237,16.81999999999971]",12,
-1,-1,RDK,8,3958,0.0-1.0-7.0,FALSE,"a,l",a,200,TRUE,200,1,180,0.5,2,-1,1,600,400,white,gray,3,2,2,16.69458333,"[16.984999999999673,16.785000000000764,16.36999999999898,16.704999999999927,16.62500000000091,16.789999999999964,17.11999999999898,16.465000000000146,17.4950000000008,15.774999999999636,16.43000000000029,16.789999999999964]",12,
-1,-1,RDK,9,4175,0.0-1.0-8.0,FALSE,"a,l",a,200,TRUE,200,1,180,0.5,2,-1,1,600,400,white,gray,3,2,2,16.70083333,"[16.9399999999996,16.6200000000008,16.640000000000327,17.549999999999272,15.695000000000618,16.8100000000004,16.654999999999745,16.75500000000011,16.56999999999971,17.38500000000022,15.850000000000364,16.9399999999996]",12,
-1,-1,RDK,10,4391,0.0-1.0-9.0,FALSE,"a,l",a,200,TRUE,200,1,180,0.5,2,-1,1,600,400,white,gray,3,2,2,16.7,"[17.414999999999054,16.11999999999989,16.6850000000004,16.724999999999454,16.61999999999989,17.24000000000069,16.38500000000022,16.524999999999636,16.654999999999745,16.69500000000062,16.579999999999018,16.75500000000011]",12,
-1,-1,RDK,11,4608,0.0-1.0-10.0,FALSE,"a,l",l,200,TRUE,200,1,0,0.5,2,-1,1,600,400,white,gray,3,2,2,16.69,"[17.024999999999636,16.779999999999745,16.525000000000546,16.654999999999745,16.625,16.850000000000364,16.654999999999745,16.579999999999927,17.224999999999454,16.450000000000728,16.3100000000004,16.599999999999454]",12,
-1,-1,RDK,12,4823,0.0-1.0-11.0,FALSE,"a,l",l,200,TRUE,200,1,0,0.5,2,-1,1,600,400,white,gray,3,2,2,16.70136364,"[16.80499999999938,16.50500000000102,16.86499999999978,16.48999999999978,17.875,15.720000000000255,16.5049999999992,16.61499999999978,16.725000000000364,17.37500000000091,16.234999999999673]",11,
-1,-1,RDK,13,5025,0.0-1.0-12.0,FALSE,"a,l",l,200,TRUE,200,1,0,0.5,2,-1,1,600,400,white,gray,3,2,2,16.4775,"[14.295000000000073,16.68000000000029,17.86999999999989,15.475000000000364,16.664999999999964,17.73999999999978,15.859999999999673,16.535000000000764,16.57499999999891,16.94500000000062,16.414999999999964,16.675000000000182]",12,
-1,-1,RDK,14,5242,0.0-1.0-13.0,FALSE,"a,l",l,200,TRUE,200,1,0,0.5,2,-1,1,600,400,white,gray,3,2,2,16.69625,"[16.985000000000582,16.589999999999236,16.775000000000546,17.225000000000364,16.034999999999854,16.795000000000073,16.599999999999454,16.675000000000182,16.455000000000837,17.49499999999898,16.175000000000182,16.550000000000182]",12,
-1,-1,RDK,15,5458,0.0-1.0-14.0,FALSE,"a,l",l,200,TRUE,200,1,0,0.5,2,-1,1,600,400,white,gray,3,2,2,16.67666667,"[16.835000000000946,16.524999999999636,16.784999999999854,16.424999999999272,17.110000000000582,16.49000000000069,16.585000000000036,16.6299999999992,16.645000000000437,16.725000000000364,17.30999999999949,16.05500000000029]",12,
-1,-1,RDK,16,5675,0.0-1.0-15.0,FALSE,"a,l",l,200,TRUE,200,1,0,0.5,2,-1,1,600,400,white,gray,3,2,2,16.69416667,"[17.0649999999996,16.44000000000051,16.80499999999938,16.6200000000008,16.68000000000029,17.459999999999127,15.965000000000146,16.730000000000473,16.539999999999964,16.704999999999927,16.625,16.69499999999971]",12,
-1,-1,RDK,17,5892,0.0-1.0-16.0,FALSE,"a,l",l,200,TRUE,200,1,0,0.5,2,-1,1,600,400,white,gray,3,2,2,16.7,"[17.045000000000073,16.714999999999236,17.8100000000004,15.420000000000073,16.789999999999964,16.81500000000051,16.549999999999272,16.55500000000029,16.770000000000437,20.01000000000022,13.399999999999636,16.519999999999527]",12,
-1,-1,RDK,18,6108,0.0-1.0-17.0,FALSE,"a,l",l,200,TRUE,200,1,0,0.5,2,-1,1,600,400,white,gray,3,2,2,16.70791667,"[17.125,16.5,16.8149999999996,16.55000000000109,16.849999999999454,16.55499999999938,16.63000000000011,16.665000000000873,16.714999999999236,16.650000000000546,16.86499999999978,16.574999999999818]",12,
-1,-1,RDK,19,6324,0.0-1.0-18.0,FALSE,"a,l",l,200,TRUE,200,1,0,0.5,2,-1,1,600,400,white,gray,3,2,2,16.61708333,"[16.17999999999938,16.49000000000069,16.579999999999927,16.845000000000255,17.234999999998763,16.110000000000582,16.835000000000036,17.729999999999563,15.830000000000837,16.480000000000473,16.62499999999909,16.465000000000146]",12,
-1,-1,RDK,20,6542,0.0-1.0-19.0,FALSE,"a,l",l,200,TRUE,200,1,0,0.5,2,-1,1,600,400,white,gray,3,2,2,16.70458333,"[16.905000000000655,16.94499999999971,16.420000000000073,16.720000000000255,16.48999999999978,16.80500000000029,16.86499999999978,16.795000000000073,17.390000000000327,16.420000000000073,15.969999999999345,16.729999999999563]",12,
-1,-1,RDK,21,6759,0.0-1.0-20.0,FALSE,"a,l",a,200,TRUE,200,1,180,0.5,2,-1,1,600,400,white,gray,3,2,2,16.70083333,"[17.1899999999996,16.375,16.640000000000327,16.709999999999127,16.81500000000051,16.659999999999854,16.645000000000437,16.63500000000022,16.80499999999938,16.550000000000182,16.74499999999989,16.640000000000327]",12,
-1,-1,RDK,22,6976,0.0-1.0-21.0,FALSE,"a,l",l,200,TRUE,200,1,0,0.5,2,-1,1,600,400,white,gray,3,2,2,16.69,"[17.00500000000011,16.50500000000011,16.770000000000437,16.61999999999989,16.7549999999992,16.760000000001128,16.584999999999127,17.675000000000182,15.710000000000036,16.57000000000062,16.699999999999818,16.62499999999909]",12,
-1,-1,RDK,23,7192,0.0-1.0-22.0,FALSE,"a,l",a,200,TRUE,200,1,180,0.5,2,-1,1,600,400,white,gray,3,2,2,16.70208333,"[17.039999999999964,16.965000000000146,16.335000000000036,16.664999999999964,16.649999999999636,16.730000000000473,16.67999999999938,16.765000000000327,17.460000000000036,16.24499999999989,16.470000000000255,16.420000000000073]",12,
-1,-1,RDK,24,7409,0.0-1.0-23.0,FALSE,"a,l",l,200,TRUE,200,1,0,0.5,2,-1,1,600,400,white,gray,3,2,2,16.67625,"[16.80999999999949,16.44500000000062,17.199999999999818,16.145000000000437,16.8149999999996,16.81999999999971,16.655000000000655,16.525000000000546,16.585000000000036,16.739999999997963,16.520000000002256,16.854999999999563]",12,
-1,-1,RDK,25,7625,0.0-1.0-24.0,FALSE,"a,l",l,200,TRUE,200,1,0,0.5,2,-1,1,600,400,white,gray,3,2,2,16.7,"[17.029999999999745,16.63499999999931,16.63000000000102,16.724999999998545,16.715000000001965,17.269999999999527,16.19499999999971,16.73999999999978,16.720000000001164,16.399999999997817,16.645000000000437,16.695000000001528]",12,
-1,-1,RDK,26,7843,0.0-1.0-25.0,FALSE,"a,l",a,200,TRUE,200,1,180,0.5,2,-1,1,600,400,white,gray,3,2,2,16.69958333,"[17.149999999999636,16.68499999999949,16.540000000000873,16.6299999999992,16.604999999999563,16.81500000000051,16.715000000000146,16.6200000000008,16.784999999999854,17.06999999999971,16.399999999999636,16.38000000000102]",12,
-1,-1,RDK,27,8058,0.0-1.0-26.0,FALSE,"a,l",l,200,TRUE,200,1,0,0.5,2,-1,1,600,400,white,gray,3,2,2,16.68,"[16.829999999999927,16.515000000001237,16.719999999999345,16.3799999999992,17.00500000000102,16.764999999999418,16.5,16.674999999999272,16.704999999999927,16.674999999999272,16.655000000000655,16.735000000000582]",12,
-1,-1,RDK,28,8276,0.0-1.0-27.0,FALSE,"a,l",a,200,TRUE,200,1,180,0.5,2,-1,1,600,400,white,gray,3,2,2,16.71625,"[17.079999999999927,16.540000000000873,16.56999999999971,16.88000000000102,16.56999999999971,16.804999999998472,16.700000000000728,16.600000000000364,16.68999999999869,16.600000000000364,16.68500000000131,16.87499999999818]",12,
-1,-1,RDK,29,8492,0.0-1.0-28.0,FALSE,"a,l",a,200,TRUE,200,1,180,0.5,2,-1,1,600,400,white,gray,3,2,2,16.70375,"[17.875,16.049999999999272,16.524999999999636,16.63000000000102,16.639999999999418,16.67500000000109,16.664999999999054,16.790000000000873,16.529999999998836,17.049999999999272,16.30500000000211,16.709999999999127]",12,
-1,-1,RDK,30,8709,0.0-1.0-29.0,FALSE,"a,l",a,200,TRUE,200,1,180,0.5,2,-1,1,600,400,white,gray,3,2,2,16.67083333,"[16.88500000000022,16.6349999999984,16.610000000000582,16.780000000000655,17.405000000000655,15.934999999997672,16.530000000002474,17.3849999999984,16.145000000000437,16.590000000000146,16.56999999999971,16.579999999999927]",12,
-1,-1,RDK,31,8926,0.0-1.0-30.0,FALSE,"a,l",a,200,TRUE,200,1,180,0.5,2,-1,1,600,400,white,gray,3,2,2,16.65375,"[16.545000000000073,16.575000000000728,16.674999999999272,16.649999999999636,16.6200000000008,17.56000000000131,15.909999999999854,17.614999999997963,15.770000000000437,16.535000000001673,16.7599999999984,16.6299999999992]",12,
-1,-1,RDK,32,9142,0.0-1.0-31.0,FALSE,"a,l",a,200,TRUE,200,1,180,0.5,2,-1,1,600,400,white,gray,3,2,2,16.6975,"[17.079999999999927,16.775000000001455,16.625,16.519999999998618,16.704999999999927,16.730000000001382,16.674999999999272,16.785000000001673,16.51000000000022,16.919999999998254,16.460000000000946,16.585000000000946]",12,
-1,-1,RDK,33,9359,0.0-1.0-32.0,FALSE,"a,l",l,200,TRUE,200,1,0,0.5,2,-1,1,600,400,white,gray,3,2,2,16.715,"[17.160000000001673,16.594999999997526,17.090000000000146,17.170000000000073,16.415000000000873,16.894999999998618,15.670000000000073,16.590000000001965,16.799999999999272,16.695000000001528,17.044999999998254,16.455000000001746]",12,
-1,-1,RDK,34,9576,0.0-1.0-33.0,FALSE,"a,l",a,200,TRUE,200,1,180,0.5,2,-1,1,600,400,white,gray,3,2,2,16.6375,"[16.13500000000022,16.585000000000946,16.904999999998836,16.659999999999854,16.645000000000437,16.514999999999418,16.94000000000051,17.81499999999869,15.450000000000728,16.524999999999636,16.88500000000022,16.590000000000146]",12,
-1,-1,RDK,35,9793,0.0-1.0-34.0,FALSE,"a,l",l,200,TRUE,200,1,0,0.5,2,-1,1,600,400,white,gray,3,2,2,16.68875,"[16.924999999999272,16.61499999999978,17.75,15.670000000000073,16.61999999999898,16.605000000001382,16.73999999999978,16.594999999999345,17.729999999999563,16.13000000000102,16.2549999999992,16.63000000000102]",12,
-1,-1,RDK,36,10009,0.0-1.0-35.0,FALSE,"a,l",l,200,TRUE,200,1,0,0.5,2,-1,1,600,400,white,gray,3,2,2,16.695,"[17.100000000000364,16.43499999999949,16.76000000000022,16.7450000000008,16.670000000000073,17.25,15.964999999998327,16.81500000000233,16.51000000000022,16.744999999997162,16.665000000002692,16.679999999998472]",12,
-1,-1,RDK,37,10226,0.0-1.0-36.0,FALSE,"a,l",a,200,TRUE,200,1,180,0.5,2,-1,1,600,400,white,gray,3,2,2,16.64833333,"[16.42500000000109,16.610000000000582,16.659999999999854,16.68000000000029,16.899999999999636,16.450000000000728,16.514999999999418,17.030000000000655,16.44999999999891,16.69000000000051,16.919999999998254,16.450000000000728]",12,
-1,-1,RDK,38,10443,0.0-1.0-37.0,FALSE,"a,l",a,200,TRUE,200,1,180,0.5,2,-1,1,600,400,white,gray,3,2,2,16.69875,"[16.840000000000146,16.795000000000073,17.845000000001164,15.5,16.639999999999418,16.63000000000102,16.645000000000437,16.709999999999127,17.43999999999869,16.18000000000029,17.900000000001455,15.260000000000218]",12,
-1,-1,RDK,39,10659,0.0-1.0-38.0,FALSE,"a,l",l,200,TRUE,200,1,0,0.5,2,-1,1,600,400,white,gray,3,2,2,16.69125,"[16.959999999999127,16.56499999999869,16.704999999999927,16.67000000000189,16.69499999999971,16.76000000000022,16.68000000000029,16.514999999999418,16.80999999999949,16.595000000001164,16.674999999999272,16.665000000000873]",12,
-1,-1,RDK,40,10876,0.0-1.0-39.0,FALSE,"a,l",a,200,TRUE,200,1,180,0.5,2,-1,1,600,400,white,gray,3,2,2,16.66541667,"[16.715000000000146,16.544999999998254,16.760000000002037,16.7599999999984,16.44000000000051,16.704999999999927,16.7599999999984,17.54500000000189,15.859999999998763,16.580000000001746,19.18499999999949,14.130000000001019]",12,
-1,-1,RDK,41,11093,0.0-1.0-40.0,FALSE,"a,l",l,200,TRUE,200,1,0,0.5,2,-1,1,600,400,white,gray,3,2,2,16.71208333,"[17.470000000001164,16.1349999999984,16.979999999999563,16.524999999999636,16.67000000000189,16.76000000000022,16.56999999999971,16.784999999999854,16.6349999999984,16.845000000001164,17.594999999999345,15.575000000000728]",12,
-1,-1,RDK,42,11309,0.0-1.0-41.0,FALSE,"a,l",a,200,TRUE,200,1,180,0.5,2,-1,1,600,400,white,gray,3,2,2,16.68333333,"[17.079999999999927,16.57499999999891,16.62500000000182,16.6349999999984,16.784999999999854,16.55000000000109,16.799999999999272,16.625,16.61999999999898,16.855000000001382,16.5,16.549999999999272]",12,
-1,-1,RDK,43,11526,0.0-1.0-42.0,FALSE,"a,l",l,200,TRUE,200,1,0,0.5,2,-1,1,600,400,white,gray,3,2,2,16.67833333,"[16.645000000000437,16.679999999998472,16.520000000000437,16.660000000001673,16.769999999998618,17.25000000000182,16.164999999999054,17.534999999999854,16.090000000000146,16.359999999998763,16.68500000000131,16.780000000000655]",12,
-1,-1,RDK,44,11744,0.0-1.0-43.0,FALSE,"a,l",l,200,TRUE,200,1,0,0.5,2,-1,1,600,400,white,gray,3,2,2,16.69166667,"[17.290000000002692,16.11999999999898,17.44499999999971,16.06499999999869,16.770000000002256,16.714999999998327,16.470000000001164,16.69499999999971,16.68999999999869,16.725000000000364,17.329999999999927,15.985000000000582]",12,
-1,-1,RDK,45,11960,0.0-1.0-44.0,FALSE,"a,l",a,200,TRUE,200,1,180,0.5,2,-1,1,600,400,white,gray,3,2,2,16.69166667,"[16.94499999999971,16.539999999999054,16.725000000000364,17,16.600000000000364,17.43500000000131,15.649999999997817,16.695000000001528,16.7549999999992,16.769999999998618,16.4900000000016,16.69499999999971]",12,
-1,-1,RDK,46,12177,0.0-1.0-45.0,FALSE,"a,l",l,200,TRUE,200,1,0,0.5,2,-1,1,600,400,white,gray,3,2,2,16.69458333,"[16.98999999999978,16.650000000001455,16.654999999998836,16.670000000000073,16.695000000001528,16.784999999999854,17.409999999999854,16.38500000000022,16.084999999999127,16.729999999999563,16.520000000000437,16.7599999999984]",12,
-1,-1,RDK,47,12394,0.0-1.0-46.0,FALSE,"a,l",a,200,TRUE,200,1,180,0.5,2,-1,1,600,400,white,gray,3,2,2,16.71875,"[17.38000000000102,16.100000000000364,17.029999999998836,16.460000000000946,16.68499999999949,16.61999999999898,16.80500000000029,16.645000000000437,16.590000000000146,16.659999999999854,17.8650000000016,15.784999999998035]",12,
-1,-1,RDK,48,12610,0.0-1.0-47.0,FALSE,"a,l",l,200,TRUE,200,1,0,0.5,2,-1,1,600,400,white,gray,3,2,2,16.69958333,"[16.905000000000655,16.475000000000364,17.589999999998327,16.7400000000016,15.81499999999869,17.63000000000102,15.710000000000946,16.704999999999927,16.82999999999811,16.465000000000146,16.69000000000051,16.840000000000146]",12,
-1,-1,RDK,49,12827,0.0-1.0-48.0,FALSE,"a,l",l,200,TRUE,200,1,0,0.5,2,-1,1,600,400,white,gray,3,2,2,16.66333333,"[16.63500000000022,16.5,16.674999999999272,16.765000000001237,18.30500000000029,14.994999999998981,17.470000000001164,16.274999999997817,16.31999999999971,16.645000000000437,16.840000000001965,16.534999999998035]",12,
-1,-1,RDK,50,13044,0.0-1.0-49.0,FALSE,"a,l",a,200,TRUE,200,1,180,0.5,2,-1,1,600,400,white,gray,3,2,2,16.70666667,"[16.98999999999978,16.639999999999418,17.079999999999927,16.390000000001237,16.609999999998763,16.68000000000029,16.709999999999127,16.770000000000437,16.899999999999636,16.375,17.36499999999978,15.970000000001164]",12,
-1,-1,RDK,51,13261,0.0-1.0-50.0,FALSE,"a,l",l,200,TRUE,200,1,0,0.5,2,-1,1,600,400,white,gray,3,2,2,16.68291667,"[16.899999999999636,16.76000000000022,17.155000000000655,16.049999999999272,16.595000000001164,16.86499999999978,16.57999999999811,16.56500000000051,16.735000000000582,16.664999999999054,16.595000000001164,16.730000000001382]",12,
-1,-1,RDK,52,13478,0.0-1.0-51.0,FALSE,"a,l",l,200,TRUE,200,1,0,0.5,2,-1,1,600,400,white,gray,3,2,2,16.69083333,"[16.914999999999054,16.7450000000008,16.545000000000073,16.644999999998618,16.645000000000437,16.7450000000008,16.669999999998254,16.775000000001455,16.700000000000728,16.465000000000146,16.649999999997817,16.790000000000873]",12,
-1,-1,RDK,53,13694,0.0-1.0-52.0,FALSE,"a,l",a,200,TRUE,200,1,180,0.5,2,-1,1,600,400,white,gray,3,2,2,16.70958333,"[17.424999999999272,16.42500000000109,16.585000000000946,16.679999999998472,16.590000000001965,16.709999999999127,16.679999999998472,16.590000000001965,16.764999999999418,16.519999999998618,17.43000000000211,16.114999999997963]",12,
-1,-1,RDK,54,13909,0.0-1.0-53.0,FALSE,"a,l",l,200,TRUE,200,1,0,0.5,2,-1,1,600,400,white,gray,3,2,2,16.69181818,"[16.920000000000073,16.61499999999978,16.585000000000946,16.68499999999949,16.61999999999898,17.69499999999971,15.795000000001892,16.57499999999891,17.905000000000655,15.489999999999782,16.724999999998545]",11,
-1,-1,RDK,55,14111,0.0-1.0-54.0,FALSE,"a,l",a,200,TRUE,200,1,180,0.5,2,-1,1,600,400,white,gray,3,2,2,16.59166667,"[15.850000000000364,17.529999999998836,15.720000000001164,16.69499999999971,16.520000000000437,16.81499999999869,16.610000000000582,17.42000000000189,16.24499999999898,17.68499999999949,15.469999999999345,16.540000000000873]",12,
-1,-1,RDK,56,14326,0.0-1.0-55.0,FALSE,"a,l",a,200,TRUE,200,1,180,0.5,2,-1,1,600,400,white,gray,3,2,2,16.69045455,"[16.894999999998618,16.715000000000146,17.530000000000655,16.289999999999054,16.6200000000008,16.525000000001455,16.55999999999767,16.56500000000233,16.729999999997744,16.540000000000873,16.625]",11,
-1,-1,RDK,57,14528,0.0-1.0-56.0,FALSE,"a,l",a,200,TRUE,200,1,180,0.5,2,-1,1,600,400,white,gray,3,2,2,16.57416667,"[15.600000000000364,16.38000000000102,16.7599999999984,16.674999999999272,16.585000000000946,16.725000000000364,16.625,17.329999999999927,17.024999999999636,15.625,16.7400000000016,16.81999999999789]",12,
-1,-1,RDK,58,14744,0.0-1.0-57.0,FALSE,"a,l",l,200,TRUE,200,1,0,0.5,2,-1,1,600,400,white,gray,3,2,2,16.69708333,"[17.734999999998763,15.835000000000946,16.954999999999927,16.529999999998836,16.980000000001382,16.61999999999898,16.445000000001528,16.795000000000073,17.149999999997817,16.145000000000437,17.860000000000582,15.31499999999869]",12,
-1,-1,RDK,59,14959,0.0-1.0-58.0,FALSE,"a,l",a,200,TRUE,200,1,180,0.5,2,-1,1,600,400,white,gray,3,2,2,16.69136364,"[17.1200000000008,16.23999999999978,16.92000000000189,17.32999999999811,15.780000000000655,16.780000000000655,16.604999999999563,16.700000000000728,16.674999999999272,17.084999999999127,16.3700000000008]",11,
-1,-1,RDK,60,15161,0.0-1.0-59.0,FALSE,"a,l",a,200,TRUE,200,1,180,0.5,2,-1,1,600,400,white,gray,3,2,2,16.56916667,"[15.540000000000873,17.24499999999898,15.925000000001091,16.584999999999127,17.31000000000131,16.075000000000728,16.889999999999418,16.43499999999949,16.93500000000131,16.529999999998836,16.595000000001164,16.764999999999418]",12,
-1,-1,RDK,61,15379,0.0-1.0-60.0,FALSE,"a,l",l,200,TRUE,200,1,0,0.5,2,-1,1,600,400,white,gray,3,2,2,16.7825,"[16.924999999997453,16.75500000000102,16.459999999999127,16.81500000000051,16.604999999999563,17.325000000000728,15.965000000000146,16.845000000001164,16.6349999999984,16.735000000000582,16.654999999998836,17.67000000000189]",12,
-1,-1,RDK,62,15594,0.0-1.0-61.0,FALSE,"a,l",l,200,TRUE,200,1,0,0.5,2,-1,1,600,400,white,gray,3,2,2,16.69541667,"[16.904999999998836,16.719999999999345,16.630000000002838,16.669999999996435,16.6050000000032,16.929999999998472,16.6399999999976,16.56500000000051,16.735000000000582,16.62500000000182,16.68000000000029,16.639999999999418]",12,
-1,-1,RDK,63,15812,0.0-1.0-62.0,FALSE,"a,l",a,200,TRUE,200,1,180,0.5,2,-1,1,600,400,white,gray,3,2,2,16.63041667,"[16.660000000001673,16.25500000000102,16.544999999998254,16.92000000000189,16.44999999999891,16.715000000001965,16.614999999997963,16.830000000001746,16.8849999999984,16.284999999999854,16.639999999999418,16.764999999999418]",12,
-1,-1,RDK,64,16028,0.0-1.0-63.0,FALSE,"a,l",a,200,TRUE,200,1,180,0.5,2,-1,1,600,400,white,gray,3,2,2,16.71333333,"[16.93499999999767,18.764999999999418,14.480000000003201,17.590000000000146,16.020000000000437,16.43999999999869,16.700000000000728,16.919999999998254,16.43999999999869,16.81500000000233,16.779999999998836,16.674999999999272]",12,
-1,-1,RDK,65,16244,0.0-1.0-64.0,FALSE,"a,l",l,200,TRUE,200,1,0,0.5,2,-1,1,600,400,white,gray,3,2,2,16.69583333,"[17.1150000000016,16.51499999999578,16.69000000000233,16.664999999997235,17.350000000002183,16.229999999999563,16.584999999999127,16.44000000000233,16.790000000000873,17.06999999999607,16.30000000000291,16.599999999998545]",12,
-1,-1,RDK,66,16462,0.0-1.0-65.0,FALSE,"a,l",l,200,TRUE,200,1,0,0.5,2,-1,1,600,400,white,gray,3,2,2,16.61875,"[16.17000000000189,16.57499999999709,16.590000000003783,16.7699999999968,16.595000000001164,16.93999999999869,16.520000000000437,16.520000000000437,16.885000000002037,16.55999999999767,16.595000000001164,16.70499999999811]",12,
-1,-1,RDK,67,16679,0.0-1.0-66.0,FALSE,"a,l",l,200,TRUE,200,1,0,0.5,2,-1,1,600,400,white,gray,3,2,2,16.71625,"[16.99499999999898,16.729999999999563,16.640000000003056,16.814999999995052,16.635000000002037,16.525000000001455,16.8849999999984,16.510000000002037,16.854999999999563,16.57999999999811,16.530000000002474,16.895000000000437]",12,
-1,-1,RDK,68,16895,0.0-1.0-67.0,FALSE,"a,l",l,200,TRUE,200,1,0,0.5,2,-1,1,600,400,white,gray,3,2,2,16.69291667,"[16.94499999999971,16.600000000002183,16.7599999999984,16.705000000001746,16.56999999999607,16.770000000000437,17.93999999999869,15.43500000000131,16.56000000000131,17.024999999997817,16.470000000001164,16.534999999999854]",12,
-1,-1,RDK,69,17112,0.0-1.0-68.0,FALSE,"a,l",a,200,TRUE,200,1,180,0.5,2,-1,1,600,400,white,gray,3,2,2,16.68458333,"[17.17500000000291,17.125,15.909999999996217,16.650000000001455,16.514999999999418,16.860000000000582,16.69499999999971,17.860000000000582,15.829999999998108,16.29500000000189,16.56000000000131,16.739999999997963]",12,
-1,-1,RDK,70,17327,0.0-1.0-69.0,FALSE,"a,l",a,200,TRUE,200,1,180,0.5,2,-1,1,600,400,white,gray,3,2,2,16.70318182,"[17.090000000000146,16.660000000003492,16.465000000000146,17.604999999999563,16.55500000000029,16.06499999999869,16.674999999999272,16.63000000000102,16.649999999997817,16.79500000000189,16.54500000000189]",11,
-1,-1,RDK,71,17529,0.0-1.0-70.0,FALSE,"a,l",a,200,TRUE,200,1,180,0.5,2,-1,1,600,400,white,gray,3,2,2,16.56333333,"[15.5,16.5,16.834999999999127,16.56499999999869,16.604999999999563,17.299999999999272,16.200000000000728,16.960000000002765,16.404999999998836,16.590000000000146,16.74499999999898,16.55500000000029]",12,
-1,-1,RDK,72,17746,0.0-1.0-71.0,FALSE,"a,l",a,200,TRUE,200,1,180,0.5,2,-1,1,600,400,white,gray,3,2,2,16.67875,"[16.81999999999971,16.660000000003492,16.75499999999738,16.56999999999971,16.715000000000146,16.650000000001455,16.590000000000146,16.645000000000437,16.49499999999898,17.270000000000437,16.345000000001164,16.62999999999738]",12,
-1,-1,RDK,73,17961,0.0-1.0-72.0,FALSE,"a,l",a,200,TRUE,200,1,180,0.5,2,-1,1,600,400,white,gray,3,2,2,16.68666667,"[16.739999999997963,16.775000000005093,16.56999999999607,16.68499999999767,17.225000000002183,16.080000000001746,16.790000000000873,16.584999999999127,16.74499999999898,16.729999999999563,16.725000000002183,16.590000000000146]",12,
-1,-1,RDK,74,18180,0.0-1.0-73.0,FALSE,"a,l",l,200,TRUE,200,1,0,0.5,2,-1,1,600,400,white,gray,3,2,2,16.64708333,"[16.42500000000291,16.575000000000728,16.68499999999767,16.660000000003492,16.69499999999607,16.67000000000189,16.659999999999854,17.04500000000189,16.32999999999811,16.715000000000146,16.79500000000189,16.5099999999984]",12,
-1,-1,RDK,75,18396,0.0-1.0-74.0,FALSE,"a,l",a,200,TRUE,200,1,180,0.5,2,-1,1,600,400,white,gray,3,2,2,16.71791667,"[17.340000000003783,16.304999999996653,16.82999999999811,16.68000000000393,16.56999999999971,16.55999999999767,16.720000000001164,16.764999999999418,17.330000000001746,16.294999999998254,16.4900000000016,16.729999999999563]",12,
-1,-1,RDK,76,18611,0.0-1.0-75.0,FALSE,"a,l",a,200,TRUE,200,1,180,0.5,2,-1,1,600,400,white,gray,3,2,2,16.69,"[17.090000000000146,16.56000000000131,16.729999999995925,17.525000000005093,16.274999999997817,16.299999999999272,16.580000000001746,16.69499999999607,16.69000000000233,16.7400000000016,16.584999999999127,16.510000000002037]",12,
-1,-1,RDK,77,18829,0.0-1.0-76.0,FALSE,"a,l",a,200,TRUE,200,1,180,0.5,2,-1,1,600,400,white,gray,3,2,2,16.70583333,"[17.05500000000029,16.55999999999767,16.610000000000582,16.68000000000029,16.650000000001455,16.56999999999971,16.80999999999767,16.770000000004075,16.674999999999272,16.724999999998545,16.69499999999971,16.67000000000189]",12,
-1,-1,RDK,78,19046,0.0-1.0-77.0,FALSE,"a,l",l,200,TRUE,200,1,0,0.5,2,-1,1,600,400,white,gray,3,2,2,16.69333333,"[16.919999999998254,16.6349999999984,17.470000000001164,15.8650000000016,16.63000000000102,16.43999999999869,16.94499999999971,16.56999999999971,16.799999999999272,16.835000000002765,16.539999999997235,16.67000000000189]",12,
-1,-1,RDK,79,19263,0.0-1.0-78.0,FALSE,"a,l",a,200,TRUE,200,1,180,0.5,2,-1,1,600,400,white,gray,3,2,2,16.71541667,"[17.13000000000102,16.549999999999272,16.8650000000016,16.784999999999854,17.18000000000029,16.165000000000873,16.474999999998545,16.81999999999971,16.960000000002765,16.2599999999984,16.729999999999563,16.664999999997235]",12,
-1,-1,RDK,80,19479,0.0-1.0-79.0,FALSE,"a,l",l,200,TRUE,200,1,0,0.5,2,-1,1,600,400,white,gray,3,2,2,16.64291667,"[16.429999999996653,17.42000000000189,16.034999999999854,16.590000000000146,16.580000000001746,16.674999999999272,16.63000000000102,16.825000000000728,16.6349999999984,17.264999999999418,15.93500000000131,16.69499999999971]",12,
-1,-1,RDK,81,19696,0.0-1.0-80.0,FALSE,"a,l",a,200,TRUE,200,1,180,0.5,2,-1,1,600,400,white,gray,3,2,2,16.69833333,"[17.450000000000728,16.645000000000437,16.125,17.284999999999854,16.94499999999971,16.13000000000102,16.294999999998254,16.645000000000437,16.725000000002183,16.80999999999767,16.584999999999127,16.7400000000016]",12,
-1,-1,RDK,82,19912,0.0-1.0-81.0,FALSE,"a,l",l,200,TRUE,200,1,0,0.5,2,-1,1,600,400,white,gray,3,2,2,16.6675,"[16.804999999996653,16.799999999999272,16.505000000004657,16.55999999999767,17.174999999999272,16.409999999999854,16.575000000000728,16.70499999999811,16.6050000000032,16.839999999996508,16.514999999999418,16.515000000003056]",12,
-1,-1,RDK,83,20130,0.0-1.0-82.0,FALSE,"a,l",l,200,TRUE,200,1,0,0.5,2,-1,1,600,400,white,gray,3,2,2,16.65458333,"[16.274999999997817,16.909999999999854,16.4900000000016,16.804999999996653,16.625000000003638,16.764999999999418,16.49500000000262,17.654999999995198,15.810000000004948,16.68499999999767,16.529999999998836,16.81000000000131]",12,
-1,-1,RDK,84,20346,0.0-1.0-83.0,FALSE,"a,l",l,200,TRUE,200,1,0,0.5,2,-1,1,600,400,white,gray,3,2,2,16.6825,"[16.900000000001455,16.465000000000146,17.8849999999984,16.510000000002037,15.68999999999869,16.775000000001455,16.55999999999767,16.660000000003492,17.229999999995925,16.17500000000291,17.8949999999968,15.444999999999709]",12,
-1,-1,RDK,85,20564,0.0-1.0-84.0,FALSE,"a,l",a,200,TRUE,200,1,180,0.5,2,-1,1,600,400,white,gray,3,2,2,16.76125,"[16.729999999999563,16.649999999997817,16.915000000000873,16.635000000002037,16.86999999999898,16.330000000001746,16.839999999996508,16.74500000000262,16.674999999999272,16.68999999999869,16.49499999999898,17.56000000000131]",12,
-1,-1,RDK,86,20780,0.0-1.0-85.0,FALSE,"a,l",l,200,TRUE,200,1,0,0.5,2,-1,1,600,400,white,gray,3,2,2,16.66625,"[16.50499999999738,16.529999999998836,16.725000000002183,16.645000000000437,16.70499999999811,16.69000000000233,16.424999999999272,17.06499999999869,16.529999999998836,16.705000000001746,16.56500000000233,16.904999999995198]",12,
-1,-1,RDK,87,20997,0.0-1.0-86.0,FALSE,"a,l",a,200,TRUE,200,1,180,0.5,2,-1,1,600,400,white,gray,3,2,2,16.68041667,"[16.960000000002765,16.539999999997235,16.87000000000262,16.349999999998545,16.664999999997235,16.710000000002765,16.68499999999767,16.69000000000233,16.68000000000029,16.864999999997963,17.49499999999898,15.654999999998836]",12,
-1,-1,RDK,88,21214,0.0-1.0-87.0,FALSE,"a,l",a,200,TRUE,200,1,180,0.5,2,-1,1,600,400,white,gray,3,2,2,16.75375,"[16.87999999999738,16.560000000004948,16.739999999997963,16.70499999999811,16.79500000000189,16.61999999999898,16.69499999999971,16.544999999998254,16.720000000001164,16.6050000000032,16.784999999996217,17.395000000000437]",12,
-1,-1,RDK,89,21430,0.0-1.0-88.0,FALSE,"a,l",a,200,TRUE,200,1,180,0.5,2,-1,1,600,400,white,gray,3,2,2,16.69708333,"[17.109999999996944,16.460000000002765,16.674999999999272,16.81000000000131,16.580000000001746,16.714999999996508,16.55000000000291,17.57999999999811,16.125,16.5,16.695000000003347,16.56499999999869]",12,
-1,-1,RDK,90,21647,0.0-1.0-89.0,FALSE,"a,l",a,200,TRUE,200,1,180,0.5,2,-1,1,600,400,white,gray,3,2,2,16.70583333,"[17.044999999998254,16.50500000000102,17.299999999999272,16.909999999999854,15.885000000002037,16.67000000000189,16.669999999994616,16.580000000001746,16.67000000000189,16.82999999999811,16.74500000000262,16.659999999999854]",12,
-1,-1,RDK,91,21861,0.0-1.0-90.0,FALSE,"a,l",l,200,TRUE,200,1,0,0.5,2,-1,1,600,400,white,gray,3,2,2,16.70727273,"[16.99499999999898,16.840000000003783,16.539999999997235,16.570000000003347,16.994999999995343,16.510000000002037,16.599999999998545,16.770000000000437,16.575000000000728,16.80500000000029,16.57999999999811]",11,
-1,-1,RDK,92,22064,0.0-1.0-91.0,FALSE,"a,l",a,200,TRUE,200,1,180,0.5,2,-1,1,600,400,white,gray,3,2,2,16.58083333,"[15.834999999999127,16.635000000002037,16.37999999999738,16.850000000002183,16.529999999998836,16.709999999999127,16.660000000003492,16.529999999998836,16.8849999999984,16.67000000000189,16.654999999998836,16.62999999999738]",12,
-1,-1,RDK,93,22280,0.0-1.0-92.0,FALSE,"a,l",l,200,TRUE,200,1,0,0.5,2,-1,1,600,400,white,gray,3,2,2,16.69166667,"[16.8849999999984,16.68999999999869,16.43500000000131,17.31500000000233,16.19499999999971,16.69499999999607,16.580000000001746,16.70499999999811,16.674999999999272,16.660000000003492,16.610000000000582,16.854999999999563]",12,
-1,-1,RDK,94,22497,0.0-1.0-93.0,FALSE,"a,l",l,200,TRUE,200,1,0,0.5,2,-1,1,600,400,white,gray,3,2,2,16.7,"[16.909999999996217,16.56500000000233,16.984999999996944,16.534999999999854,16.4900000000016,16.93000000000029,16.68000000000029,16.63000000000102,16.650000000001455,16.589999999996508,16.645000000000437,16.790000000000873]",12,
-1,-1,RDK,95,22714,0.0-1.0-94.0,FALSE,"a,l",a,200,TRUE,200,1,180,0.5,2,-1,1,600,400,white,gray,3,2,2,16.68583333,"[16.924999999999272,16.5099999999984,16.645000000000437,16.834999999999127,16.8650000000016,16.56499999999869,16.4800000000032,17.520000000000437,15.954999999998108,16.68999999999869,16.580000000001746,16.659999999999854]",12,
-1,-1,RDK,96,22931,0.0-1.0-95.0,FALSE,"a,l",a,200,TRUE,200,1,180,0.5,2,-1,1,600,400,white,gray,3,2,2,16.72,"[17.104999999995925,16.54000000000451,17.55999999999767,15.81000000000131,16.49500000000262,16.82999999999811,16.67000000000189,16.659999999996217,16.780000000002474,16.599999999998545,16.80500000000029,16.784999999999854]",12,
-1,-1,RDK,97,23147,0.0-1.0-96.0,FALSE,"a,l",a,200,TRUE,200,1,180,0.5,2,-1,1,600,400,white,gray,3,2,2,16.69625,"[16.909999999999854,16.70499999999811,16.585000000002765,16.679999999996653,16.784999999999854,16.56500000000233,16.909999999999854,16.57499999999709,16.639999999999418,16.6150000000016,16.655000000002474,16.729999999995925]",12,
-1,-1,RDK,98,23364,0.0-1.0-97.0,FALSE,"a,l",a,200,TRUE,200,1,180,0.5,2,-1,1,600,400,white,gray,3,2,2,16.71291667,"[17.06500000000233,17.864999999994325,15.4900000000016,16.7400000000016,16.659999999996217,16.570000000003347,16.635000000002037,17.729999999999563,15.69999999999709,17.93999999999869,15.409999999999854,16.750000000003638]",12,
-1,-1,RDK,99,23581,0.0-1.0-98.0,FALSE,"a,l",l,200,TRUE,200,1,0,0.5,2,-1,1,600,400,white,gray,3,2,2,16.74291667,"[16.965000000000146,16.529999999998836,17.595000000001164,15.875,16.600000000002183,16.739999999997963,16.570000000003347,17.36999999999898,16.729999999999563,15.92500000000291,16.674999999999272,17.339999999996508]",12,
-1,-1,RDK,100,23798,0.0-1.0-99.0,FALSE,"a,l",a,200,TRUE,200,1,180,0.5,2,-1,1,600,400,white,gray,3,2,2,16.69916667,"[17.029999999998836,16.594999999997526,16.705000000001746,16.674999999999272,17.29500000000189,16.159999999999854,17.55999999999767,15.805000000000291,16.62000000000262,16.57999999999811,16.735000000000582,16.63000000000102]",12,
-1,-1,RDK,101,24015,0.0-1.0-100.0,FALSE,"a,l",a,200,TRUE,200,1,180,0.5,2,-1,1,600,400,white,gray,3,2,2,16.68875,"[16.960000000002765,17.70499999999811,15.62999999999738,16.56000000000131,16.645000000004075,16.714999999996508,16.67000000000189,16.80999999999767,17.020000000004075,17.44499999999607,15.460000000002765,16.645000000000437]",12,
-1,-1,RDK,102,24230,0.0-1.0-101.0,FALSE,"a,l",l,200,TRUE,200,1,0,0.5,2,-1,1,600,400,white,gray,3,2,2,16.71625,"[17.154999999998836,16.68000000000393,16.49499999999898,17.2699999999968,16.390000000003056,16.469999999997526,17.450000000000728,15.775000000001455,16.799999999999272,16.625,17.590000000000146,15.895000000000437]",12,
-1,-1,RDK,103,24448,0.0-1.0-102.0,FALSE,"a,l",a,200,TRUE,200,1,180,0.5,2,-1,1,600,400,white,gray,3,2,2,16.68,"[16.81000000000131,16.75499999999738,16.635000000002037,16.705000000001746,16.594999999997526,16.55999999999767,17.42500000000291,16.25,16.55500000000029,16.650000000001455,16.56000000000131,16.659999999996217]",12,
-1,-1,RDK,104,24665,0.0-1.0-103.0,FALSE,"a,l",l,200,TRUE,200,1,0,0.5,2,-1,1,600,400,white,gray,3,2,2,16.66083333,"[16.525000000001455,16.610000000000582,16.749999999996362,16.7300000000032,16.529999999998836,16.614999999997963,16.830000000005384,16.57999999999447,16.895000000004075,17.45499999999811,15.655000000002474,16.75500000000102]",12,
-1,-1,RDK,105,24881,0.0-1.0-104.0,FALSE,"a,l",a,200,TRUE,200,1,180,0.5,2,-1,1,600,400,white,gray,3,2,2,16.73208333,"[17.149999999997817,16.485000000000582,16.724999999998545,16.895000000000437,16.455000000001746,16.649999999997817,16.645000000000437,16.729999999999563,16.56999999999971,16.68500000000131,16.68000000000029,17.1150000000016]",12,
-1,-1,RDK,106,25098,0.0-1.0-105.0,FALSE,"a,l",a,200,TRUE,200,1,180,0.5,2,-1,1,600,400,white,gray,3,2,2,16.71375,"[17.020000000000437,16.779999999998836,16.44499999999971,16.790000000000873,16.61999999999898,16.81499999999869,17.29000000000451,15.994999999998981,16.659999999996217,16.720000000001164,16.6050000000032,16.82499999999709]",12,
-1,-1,RDK,107,25315,0.0-1.0-106.0,FALSE,"a,l",a,200,TRUE,200,1,180,0.5,2,-1,1,600,400,white,gray,3,2,2,16.71666667,"[16.94499999999971,17.020000000000437,16.484999999996944,16.54500000000189,16.654999999998836,16.649999999997817,17.720000000001164,16.5,15.834999999999127,16.94499999999971,16.610000000000582,16.69000000000233]",12,
-1,-1,RDK,108,25532,0.0-1.0-107.0,FALSE,"a,l",l,200,TRUE,200,1,0,0.5,2,-1,1,600,400,white,gray,3,2,2,16.71208333,"[17.07999999999811,16.465000000000146,16.720000000001164,16.695000000003347,16.604999999995925,16.660000000003492,16.839999999996508,16.600000000002183,16.57499999999709,16.655000000002474,16.724999999998545,16.92500000000291]",12,
-1,-1,RDK,109,25748,0.0-1.0-108.0,FALSE,"a,l",a,200,TRUE,200,1,180,0.5,2,-1,1,600,400,white,gray,3,2,2,16.69375,"[16.900000000001455,16.654999999998836,16.74499999999898,16.62000000000262,16.765000000003056,17.794999999998254,15.719999999997526,16.645000000000437,16.475000000002183,16.664999999997235,16.645000000000437,16.69499999999971]",12,
-1,-1,RDK,110,25965,0.0-1.0-109.0,FALSE,"a,l",a,200,TRUE,200,1,180,0.5,2,-1,1,600,400,white,gray,3,2,2,16.70958333,"[16.965000000000146,17.700000000000728,15.659999999999854,16.584999999999127,16.729999999999563,16.659999999999854,16.674999999999272,17.220000000001164,16.159999999996217,17.665000000000873,15.725000000002183,16.770000000000437]",12,
-1,-1,RDK,111,26181,0.0-1.0-110.0,FALSE,"a,l",a,200,TRUE,200,1,180,0.5,2,-1,1,600,400,white,gray,3,2,2,16.6925,"[16.94000000000233,16.639999999999418,16.57999999999811,16.87000000000262,16.734999999996944,16.455000000001746,16.659999999999854,16.665000000000873,16.70499999999811,16.595000000001164,17.43500000000131,16.029999999998836]",12,
-1,-1,RDK,112,26397,0.0-1.0-111.0,FALSE,"a,l",l,200,TRUE,200,1,0,0.5,2,-1,1,600,400,white,gray,3,2,2,16.69708333,"[17,16.67000000000189,16.700000000000728,16.645000000000437,16.700000000000728,16.63499999999476,17.330000000001746,16.095000000001164,16.79500000000189,16.549999999999272,16.839999999996508,16.405000000002474]",12,
-1,-1,RDK,113,26615,0.0-1.0-112.0,FALSE,"a,l",l,200,TRUE,200,1,0,0.5,2,-1,1,600,400,white,gray,3,2,2,16.7175,"[16.909999999999854,16.854999999999563,16.68500000000131,16.705000000001746,16.549999999995634,16.775000000005093,16.604999999995925,16.660000000003492,16.839999999996508,16.81500000000233,16.614999999997963,16.595000000001164]",12,
-1,-1,RDK,114,26832,0.0-1.0-113.0,FALSE,"a,l",l,200,TRUE,200,1,0,0.5,2,-1,1,600,400,white,gray,3,2,2,16.70958333,"[17.06000000000131,16.659999999996217,17.085000000002765,16.610000000000582,16.1449999999968,16.775000000005093,16.75499999999738,16.63000000000102,16.659999999996217,16.67500000000291,16.600000000002183,16.859999999996944]",12,
-1,-1,RDK,115,27048,0.0-1.0-114.0,FALSE,"a,l",l,200,TRUE,200,1,0,0.5,2,-1,1,600,400,white,gray,3,2,2,16.71041667,"[17.000000000003638,16.69999999999709,16.654999999998836,16.695000000003347,16.590000000000146,17.589999999996508,16.275000000001455,16.32499999999709,16.600000000002183,16.650000000001455,16.590000000000146,16.854999999999563]",12,
-1,-1,RDK,116,27266,0.0-1.0-115.0,FALSE,"a,l",l,200,TRUE,200,1,0,0.5,2,-1,1,600,400,white,gray,3,2,2,16.72,"[16.885000000002037,16.849999999998545,16.720000000001164,16.595000000001164,16.594999999997526,16.695000000003347,16.794999999998254,16.54500000000189,16.604999999995925,16.875000000003638,16.610000000000582,16.869999999995343]",12,
-1,-1,RDK,117,27479,0.0-1.0-116.0,FALSE,"a,l",a,200,TRUE,200,1,180,0.5,2,-1,1,600,400,white,gray,3,2,2,16.76863636,"[17.125,16.45999999999549,16.875000000003638,16.455000000001746,17.57999999999811,15.904999999998836,16.580000000001746,16.599999999998545,16.8550000000032,16.724999999994907,17.29500000000189]",11,
-1,-1,RDK,118,27682,0.0-1.0-117.0,FALSE,"a,l",l,200,TRUE,200,1,0,0.5,2,-1,1,600,400,white,gray,3,2,2,16.62833333,"[16.2599999999984,16.44000000000233,16.68500000000131,16.689999999995052,16.67000000000189,16.81000000000131,17.43500000000131,16.19499999999971,16.395000000000437,16.56499999999869,16.790000000000873,16.604999999999563]",12,
-1,-1,RDK,119,27899,0.0-1.0-118.0,FALSE,"a,l",l,200,TRUE,200,1,0,0.5,2,-1,1,600,400,white,gray,3,2,2,16.70208333,"[16.889999999999418,16.599999999994907,17.30000000000291,16.289999999997235,16.530000000002474,16.68500000000131,16.770000000000437,16.549999999999272,17.0199999999968,16.395000000000437,16.845000000001164,16.55000000000291]",12,
-1,-1,RDK,120,28116,0.0-1.0-119.0,FALSE,"a,l",a,200,TRUE,200,1,180,0.5,2,-1,1,600,400,white,gray,3,2,2,16.70958333,"[17.0099999999984,16.61999999999898,17.275000000001455,16.3849999999984,16.334999999999127,16.725000000002183,16.724999999998545,16.650000000001455,16.599999999998545,16.68499999999767,16.875000000003638,16.63000000000102]",12,
-1,-1,RDK,121,28332,0.0-1.0-120.0,FALSE,"a,l",l,200,TRUE,200,1,0,0.5,2,-1,1,600,400,white,gray,3,2,2,16.68125,"[17.669999999998254,15.8650000000016,16.584999999999127,16.625000000003638,16.669999999998254,16.654999999998836,16.68999999999869,16.69000000000233,16.665000000000873,16.774999999997817,16.54500000000189,16.739999999997963]",12,
-1,-1,RDK,122,28549,0.0-1.0-121.0,FALSE,"a,l",a,200,TRUE,200,1,180,0.5,2,-1,1,600,400,white,gray,3,2,2,16.72541667,"[17.054999999996653,16.604999999999563,16.764999999999418,16.645000000000437,16.6150000000016,16.700000000000728,16.669999999998254,16.784999999999854,16.69000000000233,16.44499999999607,17.445000000003347,16.284999999999854]",12,
-1,-1,RDK,123,28763,0.0-1.0-122.0,FALSE,"a,l",a,200,TRUE,200,1,180,0.5,2,-1,1,600,400,white,gray,3,2,2,16.695,"[17.06500000000233,16.424999999999272,16.860000000000582,16.44499999999971,16.715000000000146,17.669999999998254,15.81000000000131,16.580000000001746,16.839999999996508,16.525000000001455,16.709999999999127]",11,
-1,-1,RDK,124,28966,0.0-1.0-123.0,FALSE,"a,l",l,200,TRUE,200,1,0,0.5,2,-1,1,600,400,white,gray,3,2,2,16.58166667,"[15.594999999997526,17.4800000000032,15.909999999999854,16.540000000000873,16.63000000000102,16.75499999999738,16.650000000001455,17.419999999998254,16.075000000000728,16.909999999999854,17.285000000003492,15.729999999995925]",12,
-1,-1,RDK,125,29180,0.0-1.0-124.0,FALSE,"a,l",l,200,TRUE,200,1,0,0.5,2,-1,1,600,400,white,gray,3,2,2,16.68227273,"[16.81000000000131,16.56499999999869,17.715000000003783,16.0199999999968,16.465000000000146,16.650000000001455,16.600000000002183,16.69999999999709,16.75500000000102,16.590000000000146,16.6349999999984]",11,
-1,-1,RDK,126,29383,0.0-1.0-125.0,FALSE,"a,l",l,200,TRUE,200,1,0,0.5,2,-1,1,600,400,white,gray,3,2,2,16.61958333,"[16.205000000001746,16.459999999999127,16.720000000001164,16.604999999999563,16.639999999999418,16.625,16.650000000001455,16.93999999999869,16.61999999999898,16.645000000000437,16.56000000000131,16.764999999999418]",12,
-1,-1,RDK,127,29600,0.0-1.0-126.0,FALSE,"a,l",l,200,TRUE,200,1,0,0.5,2,-1,1,600,400,white,gray,3,2,2,16.70375,"[17.0199999999968,16.635000000002037,17.909999999999854,15.62999999999738,16.6050000000032,16.649999999997817,16.525000000001455,16.774999999997817,17.42000000000189,16.030000000002474,16.669999999994616,16.575000000000728]",12,
-1,-1,RDK,128,29814,0.0-1.0-127.0,FALSE,"a,l",a,200,TRUE,200,1,180,0.5,2,-1,1,600,400,white,gray,3,2,2,16.70772727,"[17.05500000000029,16.87999999999738,16.674999999999272,17.19000000000233,16.18999999999869,16.514999999999418,16.570000000003347,16.669999999994616,16.715000000003783,16.659999999996217,16.665000000000873]",11,
-1,-1,RDK,129,30017,0.0-1.0-128.0,FALSE,"a,l",l,200,TRUE,200,1,0,0.5,2,-1,1,600,400,white,gray,3,2,2,16.55954545,"[15.8650000000016,16.06500000000233,16.624999999996362,16.534999999999854,16.895000000004075,16.604999999995925,16.650000000001455,16.585000000002765,17.044999999998254,16.604999999999563,16.68000000000029]",11,
-1,-1,RDK,130,30233,0.0-1.0-129.0,FALSE,"a,l",a,200,TRUE,200,1,180,0.5,2,-1,1,600,400,white,gray,3,2,2,18.09545455,"[32.4900000000016,16.57499999999709,16.674999999999272,16.635000000002037,16.785000000003492,16.534999999996217,16.700000000000728,17.665000000000873,15.68500000000131,16.784999999999854,16.5199999999968]",11,
-1,-1,RDK,131,30449,0.0-1.0-130.0,FALSE,"a,l",l,200,TRUE,200,1,0,0.5,2,-1,1,600,400,white,gray,3,2,2,16.69625,"[17.19499999999607,16.43500000000131,16.8849999999984,16.570000000003347,16.799999999999272,16.774999999997817,18.025000000001455,15.104999999999563,16.750000000003638,16.719999999997526,16.514999999999418,16.580000000001746]",12,
-1,-1,RDK,132,30666,0.0-1.0-131.0,FALSE,"a,l",l,200,TRUE,200,1,0,0.5,2,-1,1,600,400,white,gray,3,2,2,16.69833333,"[17.239999999997963,16.409999999999854,16.63000000000102,17.57499999999709,15.724999999998545,16.75500000000102,16.600000000002183,16.80999999999767,16.820000000003347,16.69499999999971,16.520000000000437,16.599999999998545]",12,
-1,-1,RDK,133,30883,0.0-1.0-132.0,FALSE,"a,l",l,200,TRUE,200,1,0,0.5,2,-1,1,600,400,white,gray,3,2,2,16.70708333,"[17.06500000000233,16.404999999998836,17.7599999999984,15.875000000003638,16.664999999997235,16.55500000000029,16.7400000000016,16.69999999999709,17.310000000004948,16.219999999997526,17.75500000000102,15.434999999997672]",12,
-1,-1,RDK,134,31098,0.0-1.0-133.0,FALSE,"a,l",l,200,TRUE,200,1,0,0.5,2,-1,1,600,400,white,gray,3,2,2,16.68363636,"[16.62999999999738,16.760000000002037,16.584999999999127,16.7400000000016,16.93500000000131,16.499999999996362,16.625000000003638,16.62999999999738,16.715000000000146,16.68500000000131,16.715000000000146]",11,
-1,-1,RDK,135,31300,0.0-1.0-134.0,FALSE,"a,l",a,200,TRUE,200,1,180,0.5,2,-1,1,600,400,white,gray,3,2,2,16.60625,"[16.025000000005093,16.55999999999767,16.54500000000189,16.669999999994616,16.965000000003783,16.37999999999738,16.535000000003492,17.784999999999854,15.819999999999709,16.649999999997817,16.55500000000029,16.784999999999854]",12,
-1,-1,RDK,136,31517,0.0-1.0-135.0,FALSE,"a,l",l,200,TRUE,200,1,0,0.5,2,-1,1,600,400,white,gray,3,2,2,16.72041667,"[16.964999999996508,16.789999999997235,16.390000000003056,16.790000000000873,16.904999999998836,16.57999999999811,16.54500000000189,16.645000000004075,16.82499999999709,16.55000000000291,16.754999999993743,16.905000000002474]",12,
-1,-1,RDK,137,31733,0.0-1.0-136.0,FALSE,"a,l",l,200,TRUE,200,1,0,0.5,2,-1,1,600,400,white,gray,3,2,2,16.69916667,"[17,16.52499999999418,16.790000000000873,16.710000000006403,16.56499999999869,16.714999999996508,17.535000000003492,15.895000000000437,16.534999999996217,17.274999999997817,16.295000000009168,16.549999999991996]",12,
-1,-1,RDK,138,31950,0.0-1.0-137.0,FALSE,"a,l",l,200,TRUE,200,1,0,0.5,2,-1,1,600,400,white,gray,3,2,2,16.69583333,"[17.80500000000029,15.735000000000582,16.700000000000728,16.62999999999738,16.68000000000029,16.86000000000422,16.674999999999272,16.584999999999127,16.56999999999971,16.720000000001164,17.6349999999984,15.75499999999738]",12,
-1,-1,RDK,139,32167,0.0-1.0-138.0,FALSE,"a,l",l,200,TRUE,200,1,0,0.5,2,-1,1,600,400,white,gray,3,2,2,16.70083333,"[16.854999999999563,16.94499999999971,16.525000000001455,16.664999999997235,16.55000000000291,16.924999999999272,16.4800000000032,16.549999999995634,16.695000000006985,16.69999999999709,16.69499999999971,16.82499999999709]",12,
-1,-1,RDK,140,32383,0.0-1.0-139.0,FALSE,"a,l",l,200,TRUE,200,1,0,0.5,2,-1,1,600,400,white,gray,3,2,2,16.69333333,"[16.95999999999185,16.770000000004075,16.5199999999968,16.635000000002037,16.880000000004657,16.44999999999709,16.764999999999418,16.709999999999127,16.57499999999709,16.860000000007858,16.52999999999156,16.665000000000873]",12,
-1,-1,RDK,141,32601,0.0-1.0-140.0,FALSE,"a,l",a,200,TRUE,200,1,180,0.5,2,-1,1,600,400,white,gray,3,2,2,16.71541667,"[17.035000000003492,17.30500000000029,15.955000000001746,16.779999999998836,17.42500000000291,15.679999999993015,17.43000000000029,16.665000000000873,16.160000000003492,17.549999999995634,15.790000000000873,16.810000000004948]",12,
-1,-1,RDK,142,32817,0.0-1.0-141.0,FALSE,"a,l",l,200,TRUE,200,1,0,0.5,2,-1,1,600,400,white,gray,3,2,2,16.68666667,"[16.8550000000032,16.69999999999709,17.564999999995052,15.750000000007276,17.93000000000029,16.374999999992724,15.635000000009313,16.854999999995925,16.714999999996508,16.465000000003783,17.81999999999971,15.57499999999709]",12,
-1,-1,RDK,143,33033,0.0-1.0-142.0,FALSE,"a,l",l,200,TRUE,200,1,0,0.5,2,-1,1,600,400,white,gray,3,2,2,16.70208333,"[17.080000000001746,17.285000000003492,15.860000000000582,16.81999999999971,16.62999999999738,16.760000000002037,16.70499999999447,16.635000000002037,16.735000000007858,16.604999999995925,17.37000000000262,15.939999999995052]",12,
-1,-1,RDK,144,33251,0.0-1.0-143.0,FALSE,"a,l",l,200,TRUE,200,1,0,0.5,2,-1,1,600,400,white,gray,3,2,2,16.69125,"[17.034999999996217,16.72500000000582,16.525000000001455,16.659999999996217,16.610000000000582,17.37000000000262,16.00499999999738,16.639999999999418,16.735000000000582,16.635000000002037,16.844999999993888,16.510000000009313]",12,
-1,-1,RDK,145,33467,0.0-1.0-144.0,FALSE,"a,l",a,200,TRUE,200,1,180,0.5,2,-1,1,600,400,white,gray,3,2,2,16.70583333,"[18.05000000000291,15.739999999997963,16.47500000000582,16.790000000000873,17.874999999992724,15.520000000004075,16.669999999998254,16.635000000002037,16.57499999999709,16.849999999998545,17.24500000000262,16.044999999998254]",12,
-1,-1,RDK,146,33684,0.0-1.0-145.0,FALSE,"a,l",a,200,TRUE,200,1,180,0.5,2,-1,1,600,400,white,gray,3,2,2,16.61166667,"[16.075000000004366,16.554999999993015,16.830000000001746,17.104999999995925,16.205000000001746,16.580000000001746,16.860000000007858,16.549999999995634,16.535000000003492,16.979999999995925,16.415000000000873,16.650000000001455]",12,
-1,-1,RDK,147,33901,0.0-1.0-146.0,FALSE,"a,l",l,200,TRUE,200,1,0,0.5,2,-1,1,600,400,white,gray,3,2,2,16.68708333,"[17.839999999996508,15.555000000000291,16.964999999996508,17.755000000004657,15.714999999996508,16.335000000006403,17.35000000000582,15.879999999990105,16.72500000000582,16.69999999999709,16.685000000004948,16.739999999997963]",12,
-1,-1,RDK,148,34117,0.0-1.0-147.0,FALSE,"a,l",a,200,TRUE,200,1,180,0.5,2,-1,1,600,400,white,gray,3,2,2,16.7025,"[17.139999999999418,16.61500000000524,16.610000000000582,16.689999999995052,16.885000000002037,16.62999999999738,16.7300000000032,16.5199999999968,16.790000000000873,16.595000000001164,17.279999999998836,15.944999999999709]",12,
-1,-1,RDK,149,34334,0.0-1.0-148.0,FALSE,"a,l",l,200,TRUE,200,1,0,0.5,2,-1,1,600,400,white,gray,3,2,2,16.61916667,"[16.090000000003783,17.52499999999418,15.705000000009022,16.59999999999127,16.69499999999971,17.515000000006694,15.799999999995634,17.54000000000815,15.914999999993597,16.6449999999968,16.640000000006694,16.75999999999476]",12,
-1,-1,RDK,150,34550,0.0-1.0-149.0,FALSE,"a,l",l,200,TRUE,200,1,0,0.5,2,-1,1,600,400,white,gray,3,2,2,16.69166667,"[16.99500000000262,16.554999999993015,17.62000000000262,15.594999999993888,16.910000000003492,16.66500000000815,16.50999999999476,16.714999999996508,17.67500000000291,15.595000000001164,16.81999999999971,16.6449999999968]",12,
-1,-1,RDK,151,34767,0.0-1.0-150.0,FALSE,"a,l",a,200,TRUE,200,1,180,0.5,2,-1,1,600,400,white,gray,3,2,2,16.69916667,"[17.17500000000291,16.64999999999418,16.49000000000524,17.770000000004075,15.769999999996799,16.614999999997963,16.724999999998545,16.720000000001164,17.75,15.54500000000553,16.569999999992433,16.610000000000582]",12,
-1,-1,RDK,152,34984,0.0-1.0-151.0,FALSE,"a,l",a,200,TRUE,200,1,180,0.5,2,-1,1,600,400,white,gray,3,2,2,16.67375,"[16.784999999996217,16.74500000000262,16.594999999993888,16.650000000001455,16.814999999995052,16.465000000003783,16.880000000004657,16.539999999993597,16.709999999999127,16.69000000000233,16.580000000001746,16.62999999999738]",12,
-1,-1,RDK,153,35201,0.0-1.0-152.0,FALSE,"a,l",a,200,TRUE,200,1,180,0.5,2,-1,1,600,400,white,gray,3,2,2,16.69791667,"[17.090000000003783,17.07499999999709,16.80999999999767,15.935000000004948,16.69499999999971,16.639999999999418,16.69999999999709,16.709999999999127,17.500000000007276,15.844999999993888,18,15.375]",12,
-1,-1,RDK,154,35418,0.0-1.0-153.0,FALSE,"a,l",l,200,TRUE,200,1,0,0.5,2,-1,1,600,400,white,gray,3,2,2,16.76833333,"[16.77499999999418,16.654999999998836,16.7300000000032,16.640000000006694,16.844999999993888,16.56500000000233,16.889999999999418,16.3949999999968,16.724999999998545,16.630000000004657,16.535000000003492,17.834999999999127]",12,
-1,-1,RDK,155,35635,0.0-1.0-154.0,FALSE,"a,l",l,200,TRUE,200,1,0,0.5,2,-1,1,600,400,white,gray,3,2,2,16.70958333,"[17.11500000000524,16.504999999990105,16.720000000001164,16.69000000000233,16.735000000000582,16.875,16.404999999998836,17.56500000000233,16.00499999999738,16.439999999995052,16.685000000004948,16.775000000001455]",12,
-1,-1,RDK,156,35851,0.0-1.0-155.0,FALSE,"a,l",l,200,TRUE,200,1,0,0.5,2,-1,1,600,400,white,gray,3,2,2,16.69041667,"[17.069999999992433,17.099999999998545,16.24000000000524,16.69499999999971,16.625,16.595000000001164,16.755000000004657,16.569999999992433,16.845000000001164,16.5,17.389999999999418,15.900000000001455]",12,
-1,-1,RDK,157,36066,0.0-1.0-156.0,FALSE,"a,l",a,200,TRUE,200,1,180,0.5,2,-1,1,600,400,white,gray,3,2,2,16.71363636,"[17.05000000000291,16.769999999989523,16.55000000000291,16.764999999999418,16.739999999997963,17.42000000000553,15.92500000000291,16.64999999999418,16.514999999999418,16.690000000009604,16.77499999999418]",11,
-1,-1,RDK,158,36268,0.0-1.0-157.0,FALSE,"a,l",l,200,TRUE,200,1,0,0.5,2,-1,1,600,400,white,gray,3,2,2,16.61708333,"[16.090000000003783,16.470000000001164,17.029999999998836,16.540000000000873,16.50999999999476,16.580000000009022,16.664999999993597,17.735000000000582,15.855000000003201,16.619999999995343,16.62000000000262,16.689999999995052]",12,
-1,-1,RDK,159,36485,0.0-1.0-158.0,FALSE,"a,l",l,200,TRUE,200,1,0,0.5,2,-1,1,600,400,white,gray,3,2,2,16.6825,"[17.005000000004657,16.464999999996508,16.614999999997963,17.085000000006403,16.354999999995925,16.60000000000582,16.64999999999418,17.900000000001455,15.514999999999418,16.75,16.39999999999418,16.849999999998545]",12,
-1,-1,RDK,160,36701,0.0-1.0-159.0,FALSE,"a,l",l,200,TRUE,200,1,0,0.5,2,-1,1,600,400,white,gray,3,2,2,16.68541667,"[16.755000000004657,16.56500000000233,16.69499999999971,16.744999999995343,16.870000000009895,16.614999999990687,16.764999999999418,16.590000000003783,16.69000000000233,16.5,16.594999999993888,16.840000000003783]",12,
-1,-1,RDK,161,36918,0.0-1.0-160.0,FALSE,"a,l",a,200,TRUE,200,1,180,0.5,2,-1,1,600,400,white,gray,3,2,2,16.7025,"[16.924999999995634,17.74500000000262,15.809999999997672,16.354999999995925,16.66500000000815,16.889999999992142,16.540000000000873,16.780000000006112,16.664999999993597,18.040000000000873,15.30000000000291,16.714999999996508]",12,
-1,-1,RDK,162,37135,0.0-1.0-161.0,FALSE,"a,l",a,200,TRUE,200,1,180,0.5,2,-1,1,600,400,white,gray,3,2,2,16.69875,"[16.984999999993306,16.460000000006403,17.164999999993597,16.22000000000844,16.729999999995925,16.575000000004366,16.684999999990396,16.74000000000524,16.68499999999767,16.80999999999767,16.530000000006112,16.799999999995634]",12,
-1,-1,RDK,163,37352,0.0-1.0-162.0,FALSE,"a,l",a,200,TRUE,200,1,180,0.5,2,-1,1,600,400,white,gray,3,2,2,16.69583333,"[17.029999999998836,16.625,16.700000000004366,16.69999999999709,16.614999999997963,16.535000000003492,17.029999999998836,16.64999999999418,16.489999999997963,16.654999999998836,16.790000000000873,16.530000000006112]",12,
-1,-1,RDK,164,37569,0.0-1.0-163.0,FALSE,"a,l",a,200,TRUE,200,1,180,0.5,2,-1,1,600,400,white,gray,3,2,2,16.72458333,"[17.010000000002037,16.81999999999971,16.6050000000032,16.659999999996217,16.700000000004366,16.625,16.674999999995634,17.459999999999127,15.92500000000291,17.485000000000582,15.92000000000553,16.80999999999767]",12,
-1,-1,RDK,165,37785,0.0-1.0-164.0,FALSE,"a,l",a,200,TRUE,200,1,180,0.5,2,-1,1,600,400,white,gray,3,2,2,16.68833333,"[16.875,16.674999999995634,16.74500000000262,16.645000000004075,17.654999999998836,15.559999999997672,16.780000000006112,16.879999999990105,17.59000000001106,15.40499999999156,16.810000000004948,16.639999999999418]",12,
-1,-1,RDK,166,38002,0.0-1.0-165.0,FALSE,"a,l",l,200,TRUE,200,1,0,0.5,2,-1,1,600,400,white,gray,3,2,2,16.69916667,"[16.964999999996508,16.560000000004948,16.779999999998836,16.735000000000582,17.619999999995343,15.900000000001455,16.44499999999971,16.950000000004366,16.489999999997963,16.654999999998836,16.515000000006694,16.77499999999418]",12,
-1,-1,RDK,167,38219,0.0-1.0-166.0,FALSE,"a,l",a,200,TRUE,200,1,180,0.5,2,-1,1,600,400,white,gray,3,2,2,16.69666667,"[17.029999999998836,16.590000000003783,16.7699999999968,16.55000000000291,16.724999999998545,16.779999999998836,16.770000000004075,17.089999999996508,16.060000000004948,16.75,16.70499999999447,16.540000000000873]",12,
-1,-1,RDK,168,38436,0.0-1.0-167.0,FALSE,"a,l",l,200,TRUE,200,1,0,0.5,2,-1,1,600,400,white,gray,3,2,2,16.70291667,"[17.08499999999185,16.605000000010477,16.729999999995925,16.654999999998836,16.81500000000233,16.59999999999127,16.645000000004075,17.465000000003783,16.455000000001746,15.979999999995925,16.67500000000291,16.724999999998545]",12,
-1,-1,RDK,169,38652,0.0-1.0-168.0,FALSE,"a,l",l,200,TRUE,200,1,0,0.5,2,-1,1,600,400,white,gray,3,2,2,16.67375,"[16.784999999996217,16.460000000006403,16.75999999999476,16.610000000000582,16.840000000003783,16.539999999993597,16.705000000001746,16.8550000000032,16.55999999999767,16.705000000001746,16.714999999996508,16.55000000000291]",12,
-1,-1,RDK,170,38869,0.0-1.0-169.0,FALSE,"a,l",a,200,TRUE,200,1,180,0.5,2,-1,1,600,400,white,gray,3,2,2,16.71708333,"[17.099999999998545,16.604999999995925,16.844999999993888,16.530000000006112,16.660000000003492,16.794999999990978,16.760000000009313,16.62999999999738,16.57499999999709,16.74000000000524,16.604999999995925,16.760000000002037]",12,
-1,-1,RDK,171,39085,0.0-1.0-170.0,FALSE,"a,l",a,200,TRUE,200,1,180,0.5,2,-1,1,600,400,white,gray,3,2,2,16.6875,"[16.889999999992142,16.65000000000873,17.194999999992433,15.959999999999127,16.860000000000582,16.67500000000291,16.55500000000029,16.56999999999971,16.904999999998836,16.510000000002037,17.200000000004366,16.27999999999156]",12,
-1,-1,RDK,172,39303,0.0-1.0-171.0,FALSE,"a,l",a,200,TRUE,200,1,180,0.5,2,-1,1,600,400,white,gray,3,2,2,16.70833333,"[17.044999999998254,16.739999999997963,16.535000000003492,16.635000000002037,16.889999999999418,17.18499999999767,15.930000000000291,17.610000000000582,15.985000000000582,16.5199999999968,16.610000000000582,16.81500000000233]",12,
-1,-1,RDK,173,39519,0.0-1.0-172.0,FALSE,"a,l",a,200,TRUE,200,1,180,0.5,2,-1,1,600,400,white,gray,3,2,2,16.7025,"[17.674999999995634,15.875,17.535000000003492,15.924999999995634,16.595000000001164,16.93499999999767,16.535000000003492,16.479999999995925,17.515000000006694,16.044999999998254,16.739999999997963,16.575000000004366]",12,
-1,-1,RDK,174,39735,0.0-1.0-173.0,FALSE,"a,l",l,200,TRUE,200,1,0,0.5,2,-1,1,600,400,white,gray,3,2,2,16.67375,"[17.020000000004075,16.494999999995343,16.700000000004366,18.029999999998836,15.674999999995634,16.455000000001746,16.42500000000291,16.749999999992724,16.610000000000582,16.67000000000553,16.714999999996508,16.540000000000873]",12,
-1,-1,RDK,175,39953,0.0-1.0-174.0,FALSE,"a,l",a,200,TRUE,200,1,180,0.5,2,-1,1,600,400,white,gray,3,2,2,16.70875,"[17.06999999999971,16.494999999995343,16.705000000001746,16.514999999999418,16.99500000000262,16.584999999999127,16.474999999998545,16.900000000001455,16.695000000006985,16.70999999999185,16.595000000001164,16.764999999999418]",12,
-1,-1,RDK,176,40170,0.0-1.0-175.0,FALSE,"a,l",l,200,TRUE,200,1,0,0.5,2,-1,1,600,400,white,gray,3,2,2,16.71875,"[17.05999999999767,16.744999999995343,16.630000000004657,16.6050000000032,16.919999999998254,16.5,16.93499999999767,16.345000000001164,16.669999999998254,16.81500000000233,17.735000000000582,15.664999999993597]",12,
-1,-1,RDK,177,40385,0.0-1.0-176.0,FALSE,"a,l",a,200,TRUE,200,1,180,0.5,2,-1,1,600,400,white,gray,3,2,2,16.68208333,"[16.74500000000262,16.709999999999127,16.68499999999767,16.580000000001746,16.6449999999968,16.764999999999418,16.700000000004366,16.625,16.75499999999738,16.510000000002037,16.744999999995343,16.72000000000844]",12,
-1,-1,RDK,178,40602,0.0-1.0-177.0,FALSE,"a,l",a,200,TRUE,200,1,180,0.5,2,-1,1,600,400,white,gray,3,2,2,16.69083333,"[17.05999999999767,16.474999999998545,16.825000000004366,16.739999999997963,17.714999999996508,15.615000000005239,17.50499999999738,15.860000000000582,16.654999999998836,16.544999999998254,16.66500000000815,16.62999999999738]",12,
-1,-1,RDK,179,40820,0.0-1.0-178.0,FALSE,"a,l",a,200,TRUE,200,1,180,0.5,2,-1,1,600,400,white,gray,3,2,2,16.72333333,"[17.125,16.575000000004366,16.674999999995634,16.784999999996217,16.6449999999968,16.635000000002037,16.640000000006694,16.854999999995925,16.68000000000029,16.55500000000029,16.81999999999971,16.69000000000233]",12,
-1,-1,RDK,180,41034,0.0-1.0-179.0,FALSE,"a,l",a,200,TRUE,200,1,180,0.5,2,-1,1,600,400,white,gray,3,2,2,16.68545455,"[16.910000000003492,16.75,17.010000000002037,16.165000000000873,16.839999999996508,16.68000000000029,16.544999999998254,16.770000000004075,16.654999999998836,16.64999999999418,16.56500000000233]",11,
-1,-1,RDK,181,41236,0.0-1.0-180.0,FALSE,"a,l",a,200,TRUE,200,1,180,0.5,2,-1,1,600,400,white,gray,3,2,2,16.57583333,"[15.519999999996799,16.610000000000582,16.930000000007567,16.484999999993306,16.544999999998254,16.685000000004948,16.685000000004948,16.784999999996217,16.705000000001746,16.514999999999418,16.909999999996217,16.535000000003492]",12,
-1,-1,RDK,182,41453,0.0-1.0-181.0,FALSE,"a,l",l,200,TRUE,200,1,0,0.5,2,-1,1,600,400,white,gray,3,2,2,16.72166667,"[17.154999999998836,16.499999999992724,16.85000000000582,16.764999999999418,16.5,16.655000000006112,16.754999999990105,16.705000000001746,16.485000000007858,16.854999999995925,16.42500000000291,17.00999999999476]",12,
-1,-1,RDK,183,41670,0.0-1.0-182.0,FALSE,"a,l",l,200,TRUE,200,1,0,0.5,2,-1,1,600,400,white,gray,3,2,2,16.69125,"[17.84999999999127,15.550000000010186,16.57499999999709,16.665000000000873,16.80999999999767,16.4800000000032,16.929999999993015,16.775000000001455,16.514999999999418,16.580000000009022,16.75999999999476,16.80500000000029]",12,
-1,-1,RDK,184,41887,0.0-1.0-183.0,FALSE,"a,l",l,200,TRUE,200,1,0,0.5,2,-1,1,600,400,white,gray,3,2,2,16.68875,"[16.859999999993306,16.86500000000524,16.7300000000032,16.409999999996217,16.655000000006112,16.734999999993306,16.779999999998836,16.74500000000262,16.659999999996217,17.544999999998254,15.770000000004075,16.510000000002037]",12,
-1,-1,RDK,185,42103,0.0-1.0-184.0,FALSE,"a,l",a,200,TRUE,200,1,180,0.5,2,-1,1,600,400,white,gray,3,2,2,16.70291667,"[17.015000000006694,16.614999999990687,16.660000000003492,16.974999999998545,16.43000000000029,16.770000000004075,16.790000000000873,17.369999999995343,15.735000000000582,16.68499999999767,17.715000000003783,15.67500000000291]",12,
-1,-1,RDK,186,42320,0.0-1.0-185.0,FALSE,"a,l",a,200,TRUE,200,1,180,0.5,2,-1,1,600,400,white,gray,3,2,2,16.70708333,"[17.18000000000029,16.470000000001164,16.79500000000553,17.564999999995052,15.644999999996799,16.640000000006694,16.77499999999418,16.68499999999767,16.715000000003783,16.719999999993888,16.640000000006694,16.654999999998836]",12,
-1,-1,RDK,187,42537,0.0-1.0-186.0,FALSE,"a,l",a,200,TRUE,200,1,180,0.5,2,-1,1,600,400,white,gray,3,2,2,16.71333333,"[16.904999999998836,16.820000000006985,16.784999999996217,16.514999999999418,16.710000000006403,16.70499999999447,16.654999999998836,16.780000000006112,16.484999999993306,16.765000000006694,16.699999999989814,16.735000000007858]",12,
-1,-1,RDK,188,42754,0.0-1.0-187.0,FALSE,"a,l",a,200,TRUE,200,1,180,0.5,2,-1,1,600,400,white,gray,3,2,2,16.7025,"[16.95499999999447,16.79500000000553,16.734999999993306,16.505000000004657,17.82499999999709,15.755000000004657,16.5,16.70999999999185,16.635000000002037,16.640000000006694,17.30999999999767,16.064999999995052]",12,
-1,-1,RDK,189,42970,0.0-1.0-188.0,FALSE,"a,l",l,200,TRUE,200,1,0,0.5,2,-1,1,600,400,white,gray,3,2,2,16.63041667,"[16.345000000001164,16.5,17.460000000006403,15.87999999999738,16.75499999999738,16.610000000000582,16.68000000000029,17.50499999999738,15.825000000004366,16.635000000002037,16.639999999999418,16.729999999995925]",12,
-1,-1,RDK,190,43187,0.0-1.0-189.0,FALSE,"a,l",l,200,TRUE,200,1,0,0.5,2,-1,1,600,400,white,gray,3,2,2,16.69541667,"[18.06500000000233,15.62000000000262,16.654999999998836,16.75,16.57499999999709,16.630000000004657,16.689999999995052,16.660000000003492,17.589999999996508,15.860000000000582,16.614999999997963,16.635000000002037]",12,
-1,-1,RDK,191,43404,0.0-1.0-190.0,FALSE,"a,l",a,200,TRUE,200,1,180,0.5,2,-1,1,600,400,white,gray,3,2,2,16.70083333,"[17.12999999999738,16.56999999999971,18.30500000000029,15.089999999996508,16.7300000000032,16.764999999999418,16.59500000000844,16.504999999990105,16.870000000009895,16.659999999996217,16.499999999992724,16.690000000009604]",12,
-1,-1,RDK,192,43620,0.0-1.0-191.0,FALSE,"a,l",l,200,TRUE,200,1,0,0.5,2,-1,1,600,400,white,gray,3,2,2,16.6975,"[17.19499999999971,16.43000000000029,16.805000000007567,16.584999999999127,16.834999999999127,16.69499999999971,16.5199999999968,17.49000000000524,16.80999999999767,15.75,16.59999999999127,16.654999999998836]",12,
-1,-1,RDK,193,43838,0.0-1.0-192.0,FALSE,"a,l",l,200,TRUE,200,1,0,0.5,2,-1,1,600,400,white,gray,3,2,2,16.79291667,"[16.93499999999767,16.55500000000029,18.119999999995343,15.355000000003201,16.75999999999476,16.585000000006403,16.589999999996508,16.735000000000582,17.510000000002037,15.910000000003492,16.564999999995052,17.895000000004075]",12,
-1,-1,RDK,194,44054,0.0-1.0-193.0,FALSE,"a,l",a,200,TRUE,200,1,180,0.5,2,-1,1,600,400,white,gray,3,2,2,16.59125,"[16.839999999996508,15.529999999998836,16.735000000007858,16.664999999993597,16.660000000003492,16.62000000000262,16.68499999999767,16.709999999999127,16.69499999999971,16.760000000002037,16.719999999993888,16.47500000000582]",12,
-1,-1,RDK,195,44271,0.0-1.0-194.0,FALSE,"a,l",l,200,TRUE,200,1,0,0.5,2,-1,1,600,400,white,gray,3,2,2,16.71083333,"[17.169999999998254,17.47000000000844,15.749999999992724,16.625,16.784999999996217,16.75,16.465000000003783,16.485000000000582,16.82999999999447,16.775000000001455,16.485000000007858,16.939999999995052]",12,
-1,-1,RDK,196,44488,0.0-1.0-195.0,FALSE,"a,l",a,200,TRUE,200,1,180,0.5,2,-1,1,600,400,white,gray,3,2,2,16.71333333,"[17.034999999996217,16.7300000000032,17.435000000004948,15.839999999996508,16.735000000000582,16.735000000000582,16.584999999999127,16.694999999992433,17.555000000007567,15.734999999993306,17.505000000004657,15.97500000000582]",12,
-1,-1,RDK,197,44705,0.0-1.0-196.0,FALSE,"a,l",l,200,TRUE,200,1,0,0.5,2,-1,1,600,400,white,gray,3,2,2,16.67875,"[15.900000000001455,16.674999999995634,16.639999999999418,17.435000000004948,15.92500000000291,17.684999999990396,15.615000000005239,16.799999999995634,16.590000000003783,16.589999999996508,16.825000000004366,17.464999999996508]",12,
-1,-1,RDK,198,44921,0.0-1.0-197.0,FALSE,"a,l",l,200,TRUE,200,1,0,0.5,2,-1,1,600,400,white,gray,3,2,2,16.68875,"[16.909999999996217,16.570000000006985,16.689999999995052,16.720000000001164,16.62999999999738,16.830000000009022,16.494999999995343,16.639999999999418,16.87000000000262,16.455000000001746,16.724999999998545,16.729999999995925]",12,
-1,-1,RDK,199,45138,0.0-1.0-198.0,FALSE,"a,l",a,200,TRUE,200,1,180,0.5,2,-1,1,600,400,white,gray,3,2,2,16.69666667,"[16.93499999999767,17.06500000000233,16.2300000000032,17.30999999999767,16.284999999996217,16.385000000002037,16.765000000006694,16.714999999996508,17.12000000000262,16.169999999998254,16.714999999996508,16.66500000000815]",12,
-1,-1,RDK,200,45352,0.0-1.0-199.0,FALSE,"a,l",a,200,TRUE,200,1,180,0.5,2,-1,1,600,400,white,gray,3,2,2,16.68454545,"[16.909999999996217,16.720000000001164,16.50499999999738,17.30000000000291,16.265000000006694,17.57499999999709,15.654999999998836,16.719999999993888,16.635000000002037,16.555000000007567,16.689999999995052]",11,