"rt","key_press","trial_type","trial_index","time_elapsed","internal_node_id","correct","choices","correct_choice","trial_duration","response_ends_trial","number_of_dots","number_of_sets","coherent_direction","coherence","dot_radius","dot_life","move_distance","aperture_width","aperture_height","dot_color","background_color","RDK_type","aperture_type","reinsert_type","frame_rate","frame_rate_array","number_of_frames"
"2231","13","text","0","2232","0.0-0.0","","","","","","","","","","","","","","","","","","","","","",""
"-1","-1","RDK","1","3458","0.0-1.0-0.0","false","a,l","l","200","true","200","1","0","0.5","2","-1","1","600","400","white","gray","3","2","2","16.69416666666666","[36.26499999999987,8.394999999999982,6.350000000000364,16.199999999999818,17.324999999999818,16.735000000000127,15.615000000000236,16.774999999999636,16.625,17.490000000000236,15.724999999999909,16.829999999999927]","12"
"-1","-1","RDK","2","3672","0.0-1.0-1.0","false","a,l","a","200","true","200","1","180","0.5","2","-1","1","600","400","white","gray","3","2","2","16.661666666666672","[15.88000000000011,32.40000000000009,2.119999999999891,17.014999999999873,16.15000000000009,18.390000000000327,15.284999999999854,16.159999999999854,15.965000000000146,17.34999999999991,16.565000000000055,16.659999999999854]","12"
"-1","-1","RDK","3","3892","0.0-1.0-2.0","false","a,l","a","200","true","200","1","180","0.5","2","-1","1","600","400","white","gray","3","2","2","16.655000000000012","[16.980000000000018,16.50500000000011,16.835000000000036,16.034999999999854,16.24499999999989,21.120000000000346,21,8.96499999999969,16.6550000000002,16.654999999999745,16.675000000000182,16.190000000000055]","12"
"-1","-1","RDK","4","4108","0.0-1.0-3.0","false","a,l","a","200","true","200","1","180","0.5","2","-1","1","600","400","white","gray","3","2","2","18.240909090909057","[17.009999999999764,16.595000000000255,16.634999999999764,16.745000000000346,16.664999999999964,15.664999999999509,34.720000000000255,16.524999999999636,16.55500000000029,16.789999999999964,16.74499999999989]","11"
"-1","-1","RDK","5","4323","0.0-1.0-4.0","false","a,l","l","200","true","200","1","0","0.5","2","-1","1","600","400","white","gray","3","2","2","18.239545454545475","[16.13500000000022,17.4399999999996,16.825000000000728,16.664999999999964,16.654999999999745,16.644999999999527,33.655000000000655,16.409999999999854,16.704999999999927,16.88500000000022,16.61499999999978]","11"
"-1","-1","RDK","6","4542","0.0-1.0-5.0","false","a,l","a","200","true","200","1","180","0.5","2","-1","1","600","400","white","gray","3","2","2","18.17999999999996","[16.964999999999236,16.645000000000437,16.024999999999636,16.57000000000062,17.23999999999978,16.784999999999854,33.845000000000255,16.13000000000011,16.729999999999563,16.659999999999854,16.38500000000022]","11"
"-1","-1","RDK","7","4758","0.0-1.0-6.0","false","a,l","l","200","true","200","1","0","0.5","2","-1","1","600","400","white","gray","3","2","2","18.17181818181821","[17.095000000000255,16.829999999999927,16.390000000000327,16.625,16.714999999999236,15.555000000000291,35.01000000000022,16.3149999999996,16.465000000000146,16.73999999999978,16.150000000000546]","11"
"-1","-1","RDK","8","4972","0.0-1.0-7.0","false","a,l","l","200","true","200","1","0","0.5","2","-1","1","600","400","white","gray","3","2","2","16.71208333333334","[16.36499999999978,17.664999999999964,16.775000000000546,15.594999999999345,17.325000000000728,16.67999999999938,16.675000000000182,16.69000000000051,15.804999999999382,17.425000000000182,16.835000000000036,16.710000000000036]","12"
"-1","-1","RDK","9","5189","0.0-1.0-8.0","false","a,l","l","200","true","200","1","0","0.5","2","-1","1","600","400","white","gray","3","2","2","16.59375","[16.454999999999927,16.529999999999745,16.700000000000728,15.99499999999989,17.335000000000036,16.644999999999527,17.515000000000327,16.284999999999854,16.23999999999978,16.670000000000073,16.69499999999971,16.0600000000004]","12"
"-1","-1","RDK","10","5408","0.0-1.0-9.0","false","a,l","a","200","true","200","1","180","0.5","2","-1","1","600","400","white","gray","3","2","2","18.225000000000033","[17.045000000000073,16.645000000000437,16.625,16.664999999999964,16.61499999999978,16.800000000000182,36.13000000000011,14.399999999999636,16.164999999999964,16.76000000000022,16.625]","11"
"-1","-1","RDK","11","5624","0.0-1.0-10.0","false","a,l","a","200","true","200","1","180","0.5","2","-1","1","600","400","white","gray","3","2","2","18.22681818181817","[16.090000000000146,17.425000000000182,16.909999999999854,16.63000000000011,16.484999999999673,16.74499999999989,34.410000000000764,14.819999999999709,17.404999999999745,16.840000000000146,16.734999999999673]","11"
"-1","-1","RDK","12","5840","0.0-1.0-11.0","false","a,l","l","200","true","200","1","0","0.5","2","-1","1","600","400","white","gray","3","2","2","18.194545454545484","[17.225000000000364,16.74499999999989,16.465000000000146,15.779999999999745,17.289999999999964,17.234999999999673,33.73500000000058,16.109999999999673,16.480000000000473,16.699999999999818,16.375]","11"
"-1","-1","RDK","13","6057","0.0-1.0-12.0","false","a,l","a","200","true","200","1","180","0.5","2","-1","1","600","400","white","gray","3","2","2","18.20318181818179","[16.94499999999971,16.474999999999454,16.780000000000655,16.289999999999964,16.984999999999673,16.715000000000146,34,16.3149999999996,16.140000000000327,16.900000000000546,16.6899999999996]","11"
"-1","-1","RDK","14","6272","0.0-1.0-13.0","false","a,l","l","200","true","200","1","0","0.5","2","-1","1","600","400","white","gray","3","2","2","16.70999999999996","[21.44499999999971,11.94000000000051,22.289999999999964,18.99499999999989,9.11999999999989,16.590000000000146,16.729999999999563,16.640000000000327,15.789999999999964,17.354999999999563,16.900000000000546,16.724999999999454]","12"
"-1","-1","RDK","15","6488","0.0-1.0-14.0","false","a,l","l","200","true","200","1","0","0.5","2","-1","1","600","400","white","gray","3","2","2","18.170454545454547","[17.220000000000255,16.549999999999272,16.580000000000837,16.029999999999745,17.409999999999854,36.404999999999745,13.63000000000011,16.6850000000004,16.674999999999272,20.890000000000327,11.800000000000182]","11"
"-1","-1","RDK","16","6708","0.0-1.0-15.0","false","a,l","a","200","true","200","1","180","0.5","2","-1","1","600","400","white","gray","3","2","2","18.24909090909097","[16.980000000000473,16.774999999999636,16.585000000000036,16.75,16.550000000000182,16.73999999999978,33.69999999999982,17.00500000000011,16.13500000000022,16.61999999999989,16.900000000000546]","11"
"-1","-1","RDK","17","6921","0.0-1.0-16.0","false","a,l","a","200","true","200","1","180","0.5","2","-1","1","600","400","white","gray","3","2","2","16.870909090909084","[16.710000000000036,17.289999999999964,16.99499999999989,16.675000000000182,16.63500000000022,16.710000000000036,17.31999999999971,16.774999999999636,15.215000000000146,17.31500000000051,17.9399999999996]","11"
"-1","-1","RDK","18","7127","0.0-1.0-17.0","false","a,l","a","200","true","200","1","180","0.5","2","-1","1","600","400","white","gray","3","2","2","18.032272727272687","[14.774999999999636,16.4350000000004,16.834999999999127,16.640000000000327,15.770000000000437,17.394999999999527,33.92000000000007,16.465000000000146,16.529999999999745,16.715000000000146,16.875]","11"
"-1","-1","RDK","19","7340","0.0-1.0-18.0","false","a,l","l","200","true","200","1","0","0.5","2","-1","1","600","400","white","gray","3","2","2","16.75916666666664","[18.019999999999527,16.449999999999818,16.350000000000364,16.960000000000036,16.585000000000036,16.68000000000029,16.764999999999418,15.985000000000582,17.409999999999854,16.625,16.604999999999563,16.675000000000182]","12"
"-1","-1","RDK","20","7555","0.0-1.0-19.0","false","a,l","l","200","true","200","1","0","0.5","2","-1","1","600","400","white","gray","3","2","2","16.707272727272787","[17.210000000000036,16.529999999999745,16.280000000000655,17.199999999999818,16.56999999999971,16.199999999999818,17.890000000000327,15.909999999999854,16.855000000000473,15.710000000000036,17.425000000000182]","11"
"-1","-1","RDK","21","7758","0.0-1.0-20.0","false","a,l","l","200","true","200","1","0","0.5","2","-1","1","600","400","white","gray","3","2","2","16.53541666666668","[15.340000000000146,16.525000000000546,16.63499999999931,16.80500000000029,16.590000000000146,15.930000000000291,17.30499999999938,16.699999999999818,16.56500000000051,16.710000000000036,16.675000000000182,16.644999999999527]","12"
"-1","-1","RDK","22","7972","0.0-1.0-21.0","false","a,l","l","200","true","200","1","0","0.5","2","-1","1","600","400","white","gray","3","2","2","16.62916666666668","[16.324999999999818,17.590000000000146,16.585000000000036,15.904999999999745,16.38500000000022,16.605000000000473,32.465000000000146,1.9149999999999636,16.354999999999563,16.395000000000437,16.399999999999636,16.625]","12"
"-1","-1","RDK","23","8188","0.0-1.0-22.0","false","a,l","a","200","true","200","1","180","0.5","2","-1","1","600","400","white","gray","3","2","2","16.713636363636315","[17.084999999999127,16.715000000000146,17.06500000000051,16.699999999999818,16.19499999999971,16.69500000000062,18.789999999999964,16.109999999998763,16.43500000000131,16.424999999999272,15.635000000000218]","11"
"-1","-1","RDK","24","8391","0.0-1.0-23.0","false","a,l","a","200","true","200","1","180","0.5","2","-1","1","600","400","white","gray","3","2","2","16.601666666666613","[16.06999999999971,16.63000000000102,16.429999999998472,16.710000000000946,16.6299999999992,16.69000000000051,15.725000000000364,17.360000000000582,16.98999999999978,16.68000000000029,16.584999999999127,16.719999999999345]","12"
"-1","-1","RDK","25","8608","0.0-1.0-24.0","false","a,l","a","200","true","200","1","180","0.5","2","-1","1","600","400","white","gray","3","2","2","18.26909090909083","[17.164999999999054,15.860000000000582,17.38000000000102,16.875,32.76999999999862,17.18500000000131,16.69499999999971,16.68000000000029,16.039999999999054,17.36499999999978,16.94499999999971]","11"
"-1","-1","RDK","26","8826","0.0-1.0-25.0","false","a,l","a","200","true","200","1","180","0.5","2","-1","1","600","400","white","gray","3","2","2","16.702916666666624","[17.295000000000073,16.599999999998545,16.545000000000073,16.790000000000873,16.344999999999345,17.06500000000051,18.295000000000073,19.284999999999854,11.44000000000051,17.420000000000073,16.82499999999891,16.530000000000655]","12"
"-1","-1","RDK","27","9041","0.0-1.0-26.0","false","a,l","l","200","true","200","1","0","0.5","2","-1","1","600","400","white","gray","3","2","2","18.149545454545493","[16.895000000000437,16.36999999999898,16.900000000001455,16.654999999998836,16.659999999999854,16.670000000000073,33.840000000000146,17.23999999999978,15.710000000000946,16.645000000000437,16.05999999999949]","11"
"-1","-1","RDK","28","9256","0.0-1.0-27.0","false","a,l","l","200","true","200","1","0","0.5","2","-1","1","600","400","white","gray","3","2","2","16.68916666666655","[17.044999999998254,15.69000000000051,17.43000000000029,16.93000000000029,16.719999999999345,16.720000000001164,16.454999999999927,16.524999999999636,16.674999999999272,15.860000000000582,17.420000000000073,16.799999999999272]","12"
"-1","-1","RDK","29","9476","0.0-1.0-28.0","false","a,l","l","200","true","200","1","0","0.5","2","-1","1","600","400","white","gray","3","2","2","16.765833333333376","[17.799999999999272,16.76000000000022,16.56500000000051,16.69000000000051,16.07499999999891,17.335000000000946,16.76000000000022,15.834999999999127,17.340000000000146,16.665000000000873,16.69499999999971,16.670000000000073]","12"
"-1","-1","RDK","30","9692","0.0-1.0-29.0","false","a,l","l","200","true","200","1","0","0.5","2","-1","1","600","400","white","gray","3","2","2","16.757083333333412","[17.610000000000582,16.69499999999971,17.895000000000437,16.07499999999891,16.26000000000022,16.670000000000073,16.604999999999563,16.55500000000029,16.875,16.645000000000437,16.795000000000073,16.405000000000655]","12"
"-1","-1","RDK","31","9908","0.0-1.0-30.0","false","a,l","a","200","true","200","1","180","0.5","2","-1","1","600","400","white","gray","3","2","2","16.745833333333394","[17.56500000000051,15.829999999999927,17.264999999999418,17.00500000000102,16.659999999999854,20.350000000000364,13.489999999999782,15.949999999998909,16.76000000000022,15.880000000001019,17.68000000000029,16.514999999999418]","12"
"-1","-1","RDK","32","10123","0.0-1.0-31.0","false","a,l","l","200","true","200","1","0","0.5","2","-1","1","600","400","white","gray","3","2","2","16.69999999999997","[17.210000000000946,16.554999999998472,16.665000000000873,16.86999999999898,15.880000000001019,17.68000000000029,16.264999999999418,16.585000000000946,16.659999999999854,16.68499999999949,16.704999999999927,16.639999999999418]","12"
"-1","-1","RDK","33","10341","0.0-1.0-32.0","false","a,l","l","200","true","200","1","0","0.5","2","-1","1","600","400","white","gray","3","2","2","16.75500000000011","[17.75,16.05000000000109,17.229999999999563,16.645000000000437,16.63500000000022,16.659999999999854,15.894999999998618,17.100000000000364,17.125,16.659999999999854,16.63000000000102,16.68000000000029]","12"
"-1","-1","RDK","34","10556","0.0-1.0-33.0","false","a,l","l","200","true","200","1","0","0.5","2","-1","1","600","400","white","gray","3","2","2","16.727727272727364","[16.640000000001237,16.149999999999636,17.389999999999418,16.31500000000051,17.26000000000022,16.674999999999272,31.140000000001237,1.9249999999992724,17.424999999999272,15.640000000001237,17.44499999999971]","11"
"-1","-1","RDK","35","10759","0.0-1.0-34.0","false","a,l","a","200","true","200","1","180","0.5","2","-1","1","600","400","white","gray","3","2","2","16.578333333333223","[15.849999999998545,16.420000000000073,16.63000000000102,16.664999999999054,16.670000000000073,15.8700000000008,17.43499999999949,16.68499999999949,16.67500000000109,16.61999999999898,16.770000000000437,16.649999999999636]","12"
"-1","-1","RDK","36","10974","0.0-1.0-35.0","false","a,l","a","200","true","200","1","180","0.5","2","-1","1","600","400","white","gray","3","2","2","16.710833333333387","[19.659999999999854,14.1200000000008,16.670000000000073,16.599999999998545,16.8700000000008,17.3799999999992,15.94000000000051,16.6200000000008,16.399999999999636,17.094999999999345,16.420000000000073,16.75500000000102]","12"
"-1","-1","RDK","37","11195","0.0-1.0-36.0","false","a,l","l","200","true","200","1","0","0.5","2","-1","1","600","400","white","gray","3","2","2","18.205000000000094","[17.13000000000102,16.774999999999636,15.654999999998836,17.38000000000102,17.05999999999949,16.645000000000437,36.789999999999054,13.4900000000016,16.3799999999992,15.710000000000946,17.23999999999978]","11"
"-1","-1","RDK","38","11406","0.0-1.0-37.0","false","a,l","a","200","true","200","1","180","0.5","2","-1","1","600","400","white","gray","3","2","2","18.397000000000116","[17.105000000001382,16.420000000000073,16.914999999999054,16.67500000000109,16.639999999999418,15.80999999999949,35.280000000000655,15.844999999999345,16.460000000000946,16.81999999999971]","10"
"-1","-1","RDK","39","11613","0.0-1.0-38.0","false","a,l","l","200","true","200","1","0","0.5","2","-1","1","600","400","white","gray","3","2","2","18.03045454545463","[14.694999999999709,15.925000000001091,17.36999999999898,16.7450000000008,16.534999999999854,16.645000000000437,33.93999999999869,16.284999999999854,16.13500000000022,17.145000000000437,16.915000000000873]","11"
"-1","-1","RDK","40","11827","0.0-1.0-39.0","false","a,l","l","200","true","200","1","0","0.5","2","-1","1","600","400","white","gray","3","2","2","16.62416666666665","[16.74499999999898,17.00500000000102,16.69999999999891,15.590000000000146,17.25,17.204999999999927,16.585000000000946,26.109999999998763,7.295000000000073,16.640000000001237,16.670000000000073,15.694999999999709]","12"
"-1","-1","RDK","41","12042","0.0-1.0-40.0","false","a,l","a","200","true","200","1","180","0.5","2","-1","1","600","400","white","gray","3","2","2","18.248181818181777","[17.44000000000051,16.784999999999854,16.5049999999992,36.030000000000655,13.975000000000364,15.715000000000146,17.474999999998545,16.850000000000364,16.720000000001164,16.734999999998763,16.5]","11"
"-1","-1","RDK","42","12259","0.0-1.0-41.0","false","a,l","l","200","true","200","1","0","0.5","2","-1","1","600","400","white","gray","3","2","2","18.253181818181805","[17.24499999999898,15.845000000001164,17.424999999999272,16.715000000000146,16.61499999999978,16.63000000000102,36.22999999999956,14.44000000000051,15.625,17.389999999999418,16.625]","11"
"-1","-1","RDK","43","12477","0.0-1.0-42.0","false","a,l","l","200","true","200","1","0","0.5","2","-1","1","600","400","white","gray","3","2","2","16.595833333333456","[17.075000000000728,16.545000000000073,16.56999999999971,16.764999999999418,16.320000000001528,17.094999999999345,16.5,16.594999999999345,16.68000000000029,16.700000000000728,16.68000000000029,15.625]","12"
"-1","-1","RDK","44","12693","0.0-1.0-43.0","false","a,l","a","200","true","200","1","180","0.5","2","-1","1","600","400","white","gray","3","2","2","16.744583333333292","[17.44499999999971,16.659999999999854,16.585000000000946,16.74499999999898,15.819999999999709,17.480000000001382,31.479999999999563,1.8699999999989814,16.81000000000131,16.849999999998545,16.915000000000873,16.274999999999636]","12"
"-1","-1","RDK","45","12910","0.0-1.0-44.0","false","a,l","a","200","true","200","1","180","0.5","2","-1","1","600","400","white","gray","3","2","2","16.726666666666762","[17.31000000000131,15.7549999999992,17.594999999999345,16.7400000000016,16.774999999999636,16.534999999999854,18.039999999999054,15.569999999999709,16.200000000000728,16.104999999999563,17.450000000000728,16.645000000000437]","12"
"-1","-1","RDK","46","13123","0.0-1.0-45.0","false","a,l","l","200","true","200","1","0","0.5","2","-1","1","600","400","white","gray","3","2","2","16.6245833333334","[17.034999999999854,16.76000000000022,23.590000000000146,17.19999999999891,8.645000000000437,17.220000000001164,16.6349999999984,16.090000000000146,17.215000000000146,16.670000000000073,16.659999999999854,15.775000000001455]","12"
"-1","-1","RDK","47","13342","0.0-1.0-46.0","false","a,l","a","200","true","200","1","180","0.5","2","-1","1","600","400","white","gray","3","2","2","18.261363636363637","[17.485000000000582,15.854999999999563,17.4950000000008,16.68499999999949,16.590000000000146,35.76000000000022,14.104999999999563,16.51000000000022,17.090000000000146,16.6200000000008,16.679999999998472]","11"
"-1","-1","RDK","48","13559","0.0-1.0-47.0","false","a,l","l","200","true","200","1","0","0.5","2","-1","1","600","400","white","gray","3","2","2","18.255454545454498","[16.8799999999992,15.985000000000582,17.48999999999978,16.8799999999992,16.56999999999971,15.730000000001382,35.06999999999971,15.920000000000073,16.18999999999869,17.275000000001455,16.81999999999971]","11"
"-1","-1","RDK","49","13778","0.0-1.0-48.0","false","a,l","a","200","true","200","1","180","0.5","2","-1","1","600","400","white","gray","3","2","2","18.140909090909023","[17.170000000000073,16.714999999998327,16.69000000000051,16.610000000000582,15.924999999999272,17.25,33.70499999999993,16.44499999999971,16.63000000000102,16.729999999999563,15.680000000000291]","11"
"-1","-1","RDK","50","13993","0.0-1.0-49.0","false","a,l","a","200","true","200","1","180","0.5","2","-1","1","600","400","white","gray","3","2","2","16.761250000000018","[23.954999999999927,10.390000000001237,16.734999999998763,16.76000000000022,16.63500000000022,16.584999999999127,17.88500000000022,15.725000000000364,16.405000000000655,16.979999999999563,16.55999999999949,16.520000000000437]","12"
"-1","-1","RDK","51","14208","0.0-1.0-50.0","false","a,l","l","200","true","200","1","0","0.5","2","-1","1","600","400","white","gray","3","2","2","16.683749999999993","[16.1200000000008,17.19499999999971,16.55999999999949,16.980000000001382,16.639999999999418,16.639999999999418,16.725000000000364,25.979999999999563,7.345000000001164,15.885000000000218,17.414999999999054,16.719999999999345]","12"
"-1","-1","RDK","52","14428","0.0-1.0-51.0","false","a,l","l","200","true","200","1","0","0.5","2","-1","1","600","400","white","gray","3","2","2","18.224090909090922","[17.05000000000109,16.674999999999272,16.715000000000146,35.840000000000146,14.289999999999054,16.61499999999978,16.625,16.3700000000008,16.960000000000946,16.56999999999971,16.7549999999992]","11"
"-1","-1","RDK","53","14643","0.0-1.0-52.0","false","a,l","l","200","true","200","1","0","0.5","2","-1","1","600","400","white","gray","3","2","2","16.757916666666613","[17.704999999999927,16.69499999999971,16.56999999999971,16.659999999999854,16.655000000000655,16.645000000000437,17.774999999999636,15.709999999999127,16.790000000000873,15.949999999998909,17.375,16.56500000000051]","12"
"-1","-1","RDK","54","14860","0.0-1.0-53.0","false","a,l","a","200","true","200","1","180","0.5","2","-1","1","600","400","white","gray","3","2","2","16.73124999999997","[17.145000000000437,15.729999999999563,17.31999999999971,17.110000000000582,16.674999999999272,16.7400000000016,17.774999999999636,15.834999999999127,16.155000000000655,15.764999999999418,17.524999999999636,17]","12"
"-1","-1","RDK","55","15078","0.0-1.0-54.0","false","a,l","l","200","true","200","1","0","0.5","2","-1","1","600","400","white","gray","3","2","2","18.21590909090909","[17.024999999999636,16.530000000000655,16.719999999999345,16.850000000000364,15.635000000000218,17.395000000000437,33.92499999999927,15.579999999999927,17.2549999999992,16.790000000000873,16.670000000000073]","11"
"-1","-1","RDK","56","15291","0.0-1.0-55.0","false","a,l","a","200","true","200","1","180","0.5","2","-1","1","600","400","white","gray","3","2","2","18.427499999999963","[17.854999999999563,16.579999999999927,16.465000000000146,16.61499999999978,16.63500000000022,16.729999999999563,33.350000000000364,17.149999999999636,16.31500000000051,16.579999999999927]","10"
"-1","-1","RDK","57","15496","0.0-1.0-56.0","false","a,l","a","200","true","200","1","180","0.5","2","-1","1","600","400","white","gray","3","2","2","16.548749999999927","[15.510000000000218,16.1299999999992,16.38000000000102,17.06499999999869,17.00500000000102,16.69499999999971,16.590000000000146,16.725000000000364,16.63500000000022,16.68000000000029,15.739999999999782,17.429999999998472]","12"
"-1","-1","RDK","58","15711","0.0-1.0-57.0","false","a,l","a","200","true","200","1","180","0.5","2","-1","1","600","400","white","gray","3","2","2","16.725000000000062","[17.13500000000022,16.670000000000073,16.670000000000073,16.659999999999854,15.700000000000728,17.07499999999891,17.9950000000008,16.18499999999949,16.540000000000873,16.599999999998545,16.7450000000008,16.725000000000364]","12"
"-1","-1","RDK","59","15925","0.0-1.0-58.0","false","a,l","l","200","true","200","1","0","0.5","2","-1","1","600","400","white","gray","3","2","2","18.217272727272675","[16.590000000000146,17.4950000000008,16.529999999998836,16.575000000000728,16.479999999999563,16.69499999999971,36.655000000000655,12.924999999999272,17.18500000000131,16.639999999999418,16.61999999999898]","11"
"-1","-1","RDK","60","16143","0.0-1.0-59.0","false","a,l","a","200","true","200","1","180","0.5","2","-1","1","600","400","white","gray","3","2","2","18.239545454545475","[16.790000000000873,17.019999999998618,15.590000000000146,17.284999999999854,17.1200000000008,16.68499999999949,33.73500000000058,16.909999999999854,16.094999999999345,15.860000000000582,17.545000000000073]","11"
"-1","-1","RDK","61","16361","0.0-1.0-60.0","false","a,l","a","200","true","200","1","180","0.5","2","-1","1","600","400","white","gray","3","2","2","18.22272727272734","[17.215000000000146,16.69499999999971,16.394999999998618,16.625,16.650000000001455,15.799999999999272,34.4950000000008,16.654999999998836,16.50500000000102,16.770000000000437,16.645000000000437]","11"
"-1","-1","RDK","62","16577","0.0-1.0-61.0","false","a,l","a","200","true","200","1","180","0.5","2","-1","1","600","400","white","gray","3","2","2","18.261818181818274","[16.570000000003347,17.36999999999898,16.665000000000873,16.524999999997817,16.650000000001455,16.674999999999272,33.31999999999971,16.479999999999563,17.18000000000029,15.834999999999127,17.610000000000582]","11"
"-1","-1","RDK","63","16792","0.0-1.0-62.0","false","a,l","l","200","true","200","1","0","0.5","2","-1","1","600","400","white","gray","3","2","2","16.678333333333285","[17.090000000000146,16.580000000001746,23.549999999999272,17.340000000000146,9.219999999997526,16.650000000001455,16.650000000001455,16.69499999999971,16.665000000000873,16.674999999999272,15.604999999999563,17.419999999998254]","12"
"-1","-1","RDK","64","17009","0.0-1.0-63.0","false","a,l","l","200","true","200","1","0","0.5","2","-1","1","600","400","white","gray","3","2","2","18.227727272727034","[20.12999999999738,13.650000000001455,16.32999999999811,17.06000000000131,16.61999999999898,35.715000000000146,14.375,15.790000000000873,16.455000000001746,17.68999999999869,16.68999999999869]","11"
"-1","-1","RDK","65","17227","0.0-1.0-64.0","false","a,l","a","200","true","200","1","180","0.5","2","-1","1","600","400","white","gray","3","2","2","18.244090909091028","[16.284999999999854,17.68000000000029,16.549999999999272,16.635000000002037,16.604999999999563,16.645000000000437,33.849999999998545,16.415000000000873,16.69499999999971,16.70499999999811,16.62000000000262]","11"
"-1","-1","RDK","66","17444","0.0-1.0-65.0","false","a,l","a","200","true","200","1","180","0.5","2","-1","1","600","400","white","gray","3","2","2","18.20318181818154","[17.219999999997526,16.580000000001746,16.669999999998254,16.31000000000131,17.154999999998836,16.775000000001455,34.294999999998254,16.135000000002037,16.07999999999811,15.819999999999709,17.19499999999971]","11"
"-1","-1","RDK","67","17661","0.0-1.0-66.0","false","a,l","l","200","true","200","1","0","0.5","2","-1","1","600","400","white","gray","3","2","2","16.691249999999854","[17.114999999997963,16.62000000000262,16.62999999999738,16.710000000002765,16.924999999999272,15.514999999999418,17.424999999999272,16.74499999999898,16.6150000000016,16.639999999999418,16.68999999999869,16.665000000000873]","12"
"-1","-1","RDK","68","17876","0.0-1.0-67.0","false","a,l","a","200","true","200","1","180","0.5","2","-1","1","600","400","white","gray","3","2","2","16.708333333333332","[16.18999999999869,17.485000000000582,16.81000000000131,16.649999999997817,16.44000000000233,16.844999999997526,16.68500000000131,16.650000000001455,15.844999999997526,17.610000000000582,16.63000000000102,16.659999999999854]","12"
"-1","-1","RDK","69","18094","0.0-1.0-68.0","false","a,l","a","200","true","200","1","180","0.5","2","-1","1","600","400","white","gray","3","2","2","16.715833333333347","[17.150000000001455,16.63000000000102,16.68499999999767,16.11999999999898,16.99500000000262,17.899999999997817,15.930000000000291,16.650000000001455,16.63000000000102,16.604999999999563,16.724999999998545,16.56999999999971]","12"
"-1","-1","RDK","70","18310","0.0-1.0-69.0","false","a,l","a","200","true","200","1","180","0.5","2","-1","1","600","400","white","gray","3","2","2","16.69500000000001","[17.325000000000728,16.375,16.80500000000029,16.6150000000016,16.774999999997817,15.720000000001164,17.145000000000437,16.965000000000146,16.68999999999869,16.575000000000728,16.69499999999971,16.654999999998836]","12"
"-1","-1","RDK","71","18527","0.0-1.0-70.0","false","a,l","a","200","true","200","1","180","0.5","2","-1","1","600","400","white","gray","3","2","2","16.722499999999854","[16.215000000000146,17.43999999999869,16.88000000000102,16.654999999998836,16.580000000001746,16.714999999996508,31.06000000000131,1.6000000000021828,17.349999999998545,16.784999999999854,15.715000000000146,17.674999999999272]","12"
"-1","-1","RDK","72","18750","0.0-1.0-71.0","false","a,l","a","200","true","200","1","180","0.5","2","-1","1","600","400","white","gray","3","2","2","18.164545454545575","[17.140000000003056,16.639999999999418,16.599999999998545,15.860000000000582,17.36999999999898,16.705000000001746,33.875,16.114999999997963,16.75500000000102,16.654999999998836,16.095000000001164]","11"
"-1","-1","RDK","73","18958","0.0-1.0-72.0","false","a,l","l","200","true","200","1","0","0.5","2","-1","1","600","400","white","gray","3","2","2","18.407500000000073","[17.154999999998836,16.334999999999127,17,16.625,16.645000000000437,15.710000000002765,34.80500000000029,16.44999999999709,16.479999999999563,16.87000000000262]","10"
"-1","-1","RDK","74","19162","0.0-1.0-73.0","false","a,l","a","200","true","200","1","180","0.5","2","-1","1","600","400","white","gray","3","2","2","16.557916666666642","[15.470000000001164,15.659999999999854,17.404999999998836,16.7400000000016,16.68000000000029,16.639999999999418,16.674999999999272,16.645000000000437,16.709999999999127,15.799999999999272,17.375,16.895000000000437]","12"
"-1","-1","RDK","75","19379","0.0-1.0-74.0","false","a,l","a","200","true","200","1","180","0.5","2","-1","1","600","400","white","gray","3","2","2","16.704583333333478","[17.020000000000437,17.38000000000102,16.31499999999869,16.345000000001164,16.020000000000437,17.469999999997526,30.81500000000233,2.224999999998545,15.924999999999272,17.604999999999563,16.62000000000262,16.715000000000146]","12"
"-1","-1","RDK","76","19595","0.0-1.0-75.0","false","a,l","a","200","true","200","1","180","0.5","2","-1","1","600","400","white","gray","3","2","2","18.28590909090913","[17.674999999999272,16.674999999999272,16.56500000000233,35.30999999999767,14.830000000001746,15.590000000000146,17.289999999997235,17.350000000002183,16.5,16.74499999999898,16.6150000000016]","11"
"-1","-1","RDK","77","19809","0.0-1.0-76.0","false","a,l","l","200","true","200","1","0","0.5","2","-1","1","600","400","white","gray","3","2","2","18.357500000000073","[16.649999999997817,17.020000000000437,16.465000000000146,16.950000000000728,16.63000000000102,16.169999999998254,36.284999999999854,14.2400000000016,15.8849999999984,17.280000000002474]","10"
"-1","-1","RDK","78","20011","0.0-1.0-77.0","false","a,l","a","200","true","200","1","180","0.5","2","-1","1","600","400","white","gray","3","2","2","18.16909090909096","[18.56000000000131,14.610000000000582,16.610000000000582,16.654999999998836,16.68500000000131,15.849999999998545,34.74499999999898,16.24499999999898,16.50500000000102,16.81000000000131,16.584999999999127]","11"
"-1","-1","RDK","79","20228","0.0-1.0-78.0","false","a,l","a","200","true","200","1","180","0.5","2","-1","1","600","400","white","gray","3","2","2","18.23772727272742","[16.69499999999971,17.360000000000582,16.424999999999272,16.635000000002037,16.604999999999563,16.68499999999767,33.720000000001164,16.165000000000873,16.985000000000582,16.82499999999709,16.515000000003056]","11"
"-1","-1","RDK","80","20444","0.0-1.0-79.0","false","a,l","a","200","true","200","1","180","0.5","2","-1","1","600","400","white","gray","3","2","2","16.70291666666647","[17.07499999999709,16.725000000002183,15.68999999999869,17.43500000000131,17,16.625,16.74499999999898,16.674999999999272,16.56999999999971,16.69000000000233,15.739999999997963,17.465000000000146]","12"
"-1","-1","RDK","81","20663","0.0-1.0-80.0","false","a,l","l","200","true","200","1","0","0.5","2","-1","1","600","400","white","gray","3","2","2","16.74499999999989","[17.590000000000146,16.590000000000146,16.575000000000728,16.614999999997963,17.889999999999418,15.020000000000437,17.205000000001746,16.6349999999984,16.729999999999563,16.715000000000146,16.540000000000873,16.834999999999127]","12"
"-1","-1","RDK","82","20877","0.0-1.0-81.0","false","a,l","l","200","true","200","1","0","0.5","2","-1","1","600","400","white","gray","3","2","2","18.214545454545508","[16.325000000000728,17.56000000000131,16.56999999999971,16.590000000000146,16.590000000000146,35.974999999998545,14.069999999999709,16.110000000000582,17.31000000000131,16.57999999999811,16.68000000000029]","11"
"-1","-1","RDK","83","21095","0.0-1.0-82.0","false","a,l","l","200","true","200","1","0","0.5","2","-1","1","600","400","white","gray","3","2","2","18.210454545454425","[17.114999999997963,16.830000000001746,15.56499999999869,16.62000000000262,17.039999999997235,17.350000000002183,33.67499999999927,16.840000000000146,16.174999999999272,15.845000000001164,17.2599999999984]","11"
"-1","-1","RDK","84","21313","0.0-1.0-83.0","false","a,l","l","200","true","200","1","0","0.5","2","-1","1","600","400","white","gray","3","2","2","18.2222727272727","[16.9900000000016,16.31999999999971,16.18999999999869,17.3650000000016,16.674999999999272,15.770000000000437,34.48500000000058,16.665000000000873,16.524999999997817,16.595000000001164,16.864999999997963]","11"
"-1","-1","RDK","85","21529","0.0-1.0-84.0","false","a,l","l","200","true","200","1","0","0.5","2","-1","1","600","400","white","gray","3","2","2","18.240909090909224","[16.3650000000016,17.68499999999767,16.299999999999272,16.625,16.604999999999563,16.8650000000016,33.56999999999971,15.885000000002037,17.349999999998545,16.540000000000873,16.860000000000582]","11"
"-1","-1","RDK","86","21743","0.0-1.0-85.0","false","a,l","a","200","true","200","1","180","0.5","2","-1","1","600","400","white","gray","3","2","2","16.677083333333332","[17.090000000000146,16.6349999999984,16.674999999999272,16.209999999999127,17.090000000000146,16.75500000000102,16.584999999999127,26.040000000000873,7.31000000000131,16.70499999999811,15.780000000002474,17.25]","12"
"-1","-1","RDK","87","21963","0.0-1.0-86.0","false","a,l","l","200","true","200","1","0","0.5","2","-1","1","600","400","white","gray","3","2","2","18.221818181818062","[17.1349999999984,16.63000000000102,16.665000000000873,35.484999999996944,13.62000000000262,16.724999999998545,16.525000000001455,17.75,16.594999999997526,16.68000000000029,16.63000000000102]","11"
"-1","-1","RDK","88","22176","0.0-1.0-87.0","false","a,l","a","200","true","200","1","180","0.5","2","-1","1","600","400","white","gray","3","2","2","18.388500000000203","[16.350000000002183,17.44499999999971,16.799999999999272,16.54500000000189,16.68499999999767,16.645000000000437,35.70999999999913,14.409999999999854,16.895000000000437,16.400000000001455]","10"
"-1","-1","RDK","89","22381","0.0-1.0-88.0","false","a,l","l","200","true","200","1","0","0.5","2","-1","1","600","400","white","gray","3","2","2","18.138636363636497","[16.575000000000728,16.68500000000131,16.674999999999272,16.674999999999272,16.165000000000873,17.219999999997526,34.43000000000029,15.81000000000131,16.479999999999563,16.825000000000728,15.985000000000582]","11"
"-1","-1","RDK","90","22595","0.0-1.0-89.0","false","a,l","l","200","true","200","1","0","0.5","2","-1","1","600","400","white","gray","3","2","2","16.670416666666522","[17.770000000000437,16.43499999999767,16.760000000002037,16.56999999999971,16.604999999999563,16.904999999998836,15.470000000001164,17.349999999998545,17.030000000002474,16.57999999999811,16.625,15.944999999999709]","12"
"-1","-1","RDK","91","22811","0.0-1.0-90.0","false","a,l","l","200","true","200","1","0","0.5","2","-1","1","600","400","white","gray","3","2","2","16.709583333333587","[17.095000000001164,15.8650000000016,17.32999999999811,16.8650000000016,15.724999999998545,17.54500000000189,16.669999999998254,16.735000000000582,16.639999999999418,15.904999999998836,17.42500000000291,16.715000000000146]","12"
"-1","-1","RDK","92","23031","0.0-1.0-91.0","false","a,l","l","200","true","200","1","0","0.5","2","-1","1","600","400","white","gray","3","2","2","16.70333333333353","[20.215000000000146,12.905000000002474,17.25499999999738,17.395000000000437,16.010000000002037,16.864999999997963,16.525000000001455,16.590000000000146,16.534999999999854,16.80500000000029,16.68999999999869,16.650000000001455]","12"
"-1","-1","RDK","93","23246","0.0-1.0-92.0","false","a,l","a","200","true","200","1","180","0.5","2","-1","1","600","400","white","gray","3","2","2","16.747916666666544","[17.554999999996653,16.650000000001455,16.584999999999127,16.68000000000029,16.67000000000189,16.62999999999738,19.1150000000016,14.494999999998981,16.56999999999971,16.845000000001164,16.50500000000102,16.674999999999272]","12"
"-1","-1","RDK","94","23461","0.0-1.0-93.0","false","a,l","l","200","true","200","1","0","0.5","2","-1","1","600","400","white","gray","3","2","2","16.70583333333313","[17.24499999999898,15.6150000000016,16.70499999999811,17.610000000000582,16.764999999999418,16.659999999999854,15.545000000001892,17.584999999999127,16.68499999999767,15.940000000002328,17.31499999999869,16.799999999999272]","12"
"-1","-1","RDK","95","23677","0.0-1.0-94.0","false","a,l","l","200","true","200","1","0","0.5","2","-1","1","600","400","white","gray","3","2","2","16.713181818181592","[17.099999999998545,16.69499999999971,16.635000000002037,16.654999999998836,16,17.4900000000016,30.93499999999767,1.8800000000010186,17.68500000000131,16.084999999999127,16.68499999999767]","11"
"-1","-1","RDK","96","23879","0.0-1.0-95.0","false","a,l","a","200","true","200","1","180","0.5","2","-1","1","600","400","white","gray","3","2","2","18.100454545454507","[15.43999999999869,17.090000000000146,16.825000000000728,16.32999999999811,16.600000000002183,16.659999999999854,34.1349999999984,15.799999999999272,16.895000000000437,16.93500000000131,16.395000000000437]","11"
"-1","-1","RDK","97","24094","0.0-1.0-96.0","false","a,l","a","200","true","200","1","180","0.5","2","-1","1","600","400","white","gray","3","2","2","16.695833333333212","[17.299999999999272,15.465000000000146,16.68500000000131,17.360000000000582,16.979999999999563,16.575000000000728,16.68000000000029,15.774999999997817,17.540000000000873,16.729999999999563,15.779999999998836,17.479999999999563]","12"
"-1","-1","RDK","98","24314","0.0-1.0-97.0","false","a,l","l","200","true","200","1","0","0.5","2","-1","1","600","400","white","gray","3","2","2","18.22454545454556","[17.084999999999127,16.63000000000102,16.70499999999811,16.67000000000189,32.5099999999984,17.44000000000233,16.919999999998254,16.529999999998836,16.625,16.69000000000233,16.665000000000873]","11"
"-1","-1","RDK","99","24527","0.0-1.0-98.0","false","a,l","a","200","true","200","1","180","0.5","2","-1","1","600","400","white","gray","3","2","2","18.404999999999927","[16.534999999999854,17.2699999999968,16.660000000003492,16.714999999996508,16.6050000000032,16.70499999999811,35.68999999999869,14.665000000000873,16.56500000000233,16.639999999999418]","10"
"-1","-1","RDK","100","24732","0.0-1.0-99.0","false","a,l","l","200","true","200","1","0","0.5","2","-1","1","600","400","white","gray","3","2","2","17.999090909090725","[15.340000000000146,16.659999999999854,16.544999999998254,15.670000000001892,17.220000000001164,17.109999999996944,34.125,16.020000000000437,16.56000000000131,16.70499999999811,16.034999999999854]","11"
"-1","-1","RDK","101","24947","0.0-1.0-100.0","false","a,l","l","200","true","200","1","0","0.5","2","-1","1","600","400","white","gray","3","2","2","18.17772727272743","[17.534999999999854,16.56499999999869,16.455000000001746,16.70499999999811,16.63000000000102,16.69499999999971,33.625,17.409999999999854,16.470000000001164,16.025000000001455,15.840000000000146]","11"
"-1","-1","RDK","102","25165","0.0-1.0-101.0","false","a,l","l","200","true","200","1","0","0.5","2","-1","1","600","400","white","gray","3","2","2","16.67458333333343","[17.095000000001164,16.06999999999971,17.625,16.485000000000582,16.764999999999418,16.55999999999767,16.63000000000102,16.68500000000131,15.909999999999854,16.74499999999898,17.159999999999854,16.3650000000016]","12"
"-1","-1","RDK","103","25380","0.0-1.0-102.0","false","a,l","l","200","true","200","1","0","0.5","2","-1","1","600","400","white","gray","3","2","2","18.159999999999854","[17.139999999999418,16.75500000000102,16.62999999999738,33.37000000000262,16.834999999999127,16.520000000000437,17.00499999999738,16.3650000000016,16.56999999999971,16.889999999999418,15.680000000000291]","11"
"-1","-1","RDK","104","25597","0.0-1.0-103.0","false","a,l","a","200","true","200","1","180","0.5","2","-1","1","600","400","white","gray","3","2","2","18.23499999999992","[17.419999999998254,16.525000000001455,16.520000000000437,15.694999999999709,17.654999999998836,16.68500000000131,36.10499999999956,13.9900000000016,15.774999999997817,17.479999999999563,16.735000000000582]","11"
"-1","-1","RDK","105","25814","0.0-1.0-104.0","false","a,l","l","200","true","200","1","0","0.5","2","-1","1","600","400","white","gray","3","2","2","18.281363636363743","[17.110000000000582,16.00499999999738,17.3650000000016,16.669999999998254,16.600000000002183,16.68500000000131,33.76499999999942,16.664999999997235,16.090000000000146,16.960000000002765,17.18000000000029]","11"
"-1","-1","RDK","106","26030","0.0-1.0-105.0","false","a,l","l","200","true","200","1","0","0.5","2","-1","1","600","400","white","gray","3","2","2","18.14454545454547","[20.200000000000728,13.284999999999854,16.93000000000029,16.649999999997817,16.159999999999854,17.19000000000233,33.30500000000029,17.57999999999811,15.869999999998981,16.720000000001164,15.700000000000728]","11"
"-1","-1","RDK","107","26247","0.0-1.0-106.0","false","a,l","l","200","true","200","1","0","0.5","2","-1","1","600","400","white","gray","3","2","2","18.24363636363639","[17.395000000000437,16.584999999999127,16.514999999999418,16.665000000000873,16.6349999999984,16.735000000000582,33.904999999998836,16.3550000000032,16.549999999999272,16.93000000000029,16.409999999999854]","11"
"-1","-1","RDK","108","26462","0.0-1.0-107.0","false","a,l","l","200","true","200","1","0","0.5","2","-1","1","600","400","white","gray","3","2","2","16.696249999999964","[17.19499999999971,16.299999999999272,16.885000000002037,16.69499999999971,16.56999999999971,16.669999999998254,16.67500000000291,16.674999999999272,16.700000000000728,16.06999999999971,17.31499999999869,16.604999999999563]","12"
"-1","-1","RDK","109","26679","0.0-1.0-108.0","false","a,l","a","200","true","200","1","180","0.5","2","-1","1","600","400","white","gray","3","2","2","16.73666666666668","[17.989999999997963,16.655000000002474,16.69999999999709,16.659999999999854,16.19000000000233,16.520000000000437,18.109999999996944,15.970000000001164,16.799999999999272,16.775000000001455,16.345000000001164,16.125]","12"
"-1","-1","RDK","110","26896","0.0-1.0-109.0","false","a,l","l","200","true","200","1","0","0.5","2","-1","1","600","400","white","gray","3","2","2","18.257272727272554","[17.50499999999738,16.665000000000873,16.530000000002474,16.659999999999854,16.534999999999854,16.724999999998545,36.970000000001164,14.094999999997526,15.730000000003201,16.709999999999127,16.70499999999811]","11"
"-1","-1","RDK","111","27111","0.0-1.0-110.0","false","a,l","a","200","true","200","1","180","0.5","2","-1","1","600","400","white","gray","3","2","2","18.43050000000003","[17.2599999999984,16.06000000000131,17.32999999999811,16.799999999999272,16.720000000001164,16.55500000000029,35.2599999999984,15.090000000000146,15.670000000001892,17.56000000000131]","10"
"-1","-1","RDK","112","27317","0.0-1.0-111.0","false","a,l","a","200","true","200","1","180","0.5","2","-1","1","600","400","white","gray","3","2","2","18.08909090909087","[15.610000000000582,16.43500000000131,16.8849999999984,16.625,16.63000000000102,16.139999999999418,34.340000000000146,16.364999999997963,16.625,16.375,16.950000000000728]","11"
"-1","-1","RDK","113","27530","0.0-1.0-112.0","false","a,l","a","200","true","200","1","180","0.5","2","-1","1","600","400","white","gray","3","2","2","16.793749999999818","[18.07499999999709,16.99500000000262,16.5,16.774999999997817,16.604999999999563,16.784999999999854,16.635000000002037,15.6349999999984,17.330000000001746,16.93999999999869,16.575000000000728,16.674999999999272]","12"
"-1","-1","RDK","114","27744","0.0-1.0-113.0","false","a,l","a","200","true","200","1","180","0.5","2","-1","1","600","400","white","gray","3","2","2","18.34900000000016","[17.12000000000262,16.614999999997963,15.889999999999418,34,17.010000000002037,16.544999999998254,16.835000000002765,16.589999999996508,16.81000000000131,16.075000000000728]","10"
"-1","-1","RDK","115","27949","0.0-1.0-114.0","false","a,l","a","200","true","200","1","180","0.5","2","-1","1","600","400","white","gray","3","2","2","18.0831818181819","[15.600000000002183,16.529999999998836,16.7400000000016,16.669999999998254,16.67000000000189,16.68499999999767,36.025000000001455,14.110000000000582,16.529999999998836,16.739999999997963,16.6150000000016]","11"
"-1","-1","RDK","116","28164","0.0-1.0-115.0","false","a,l","l","200","true","200","1","0","0.5","2","-1","1","600","400","white","gray","3","2","2","18.23727272727278","[17.1349999999984,16.235000000000582,16.135000000002037,17.639999999999418,16.63000000000102,16.649999999997817,33.82500000000073,15.700000000000728,17.154999999998836,16.849999999998545,16.655000000002474]","11"
"-1","-1","RDK","117","28383","0.0-1.0-116.0","false","a,l","l","200","true","200","1","0","0.5","2","-1","1","600","400","white","gray","3","2","2","16.622500000000098","[17.095000000001164,16.56999999999971,16.659999999999854,15.965000000000146,17.549999999999272,16.659999999999854,16.75500000000102,16.359999999996944,16.650000000001455,16.669999999998254,16.69000000000233,15.845000000001164]","12"
"-1","-1","RDK","118","28598","0.0-1.0-117.0","false","a,l","l","200","true","200","1","0","0.5","2","-1","1","600","400","white","gray","3","2","2","16.726666666666762","[17.159999999999854,16.68000000000029,16.635000000002037,16.639999999999418,16.645000000000437,16.719999999997526,31.299999999999272,1.7950000000018917,17.549999999999272,16.215000000000146,16.50500000000102,16.875]","12"
"-1","-1","RDK","119","28817","0.0-1.0-118.0","false","a,l","a","200","true","200","1","180","0.5","2","-1","1","600","400","white","gray","3","2","2","16.709166666666533","[17.099999999998545,16.43000000000029,21.979999999999563,19.06999999999971,9.210000000002765,16.654999999998836,16.625,16.70499999999811,15.625,17.30500000000029,17.139999999999418,16.665000000000873]","12"
"-1","-1","RDK","120","29029","0.0-1.0-119.0","false","a,l","a","200","true","200","1","180","0.5","2","-1","1","600","400","white","gray","3","2","2","18.157272727272687","[20.215000000000146,13.690000000002328,16.74499999999898,15.68500000000131,17.32499999999709,35.835000000002765,14.409999999999854,16.734999999996944,16.6150000000016,16.68000000000029,15.794999999998254]","11"
"-1","-1","RDK","121","29248","0.0-1.0-120.0","false","a,l","a","200","true","200","1","180","0.5","2","-1","1","600","400","white","gray","3","2","2","18.23727272727278","[17.299999999999272,16.67000000000189,16.639999999999418,16.639999999999418,16.63000000000102,16.739999999997963,33.4900000000016,17.145000000000437,16.264999999999418,16.419999999998254,16.67000000000189]","11"
"-1","-1","RDK","122","29462","0.0-1.0-121.0","false","a,l","a","200","true","200","1","180","0.5","2","-1","1","600","400","white","gray","3","2","2","18.402999999999885","[17.154999999998836,16.135000000002037,17.360000000000582,16.524999999997817,16.709999999999127,16.63000000000102,33.93000000000029,16.1349999999984,16.38000000000102,17.06999999999971]","10"
"-1","-1","RDK","123","29666","0.0-1.0-122.0","false","a,l","l","200","true","200","1","0","0.5","2","-1","1","600","400","white","gray","3","2","2","18.030454545454464","[15.055000000000291,16.524999999997817,16.69000000000233,16.69499999999971,15.649999999997817,17.31999999999971,33.909999999999854,16.63000000000102,16.209999999999127,16.965000000000146,16.68500000000131]","11"
"-1","-1","RDK","124","29881","0.0-1.0-123.0","false","a,l","l","200","true","200","1","0","0.5","2","-1","1","600","400","white","gray","3","2","2","16.78166666666675","[17.81999999999971,16.88000000000102,20.93499999999767,19.905000000002474,9.145000000000437,16.625,16.75,15.770000000000437,17.549999999999272,16.69499999999971,16.669999999998254,16.635000000002037]","12"
"-1","-1","RDK","125","30096","0.0-1.0-124.0","false","a,l","a","200","true","200","1","180","0.5","2","-1","1","600","400","white","gray","3","2","2","18.157727272727325","[17.235000000000582,16.55500000000029,16.044999999998254,17.450000000000728,16.55500000000029,35.784999999999854,14.224999999998545,16.635000000002037,16.649999999997817,16.290000000000873,16.31000000000131]","11"
"-1","-1","RDK","126","30313","0.0-1.0-125.0","false","a,l","l","200","true","200","1","0","0.5","2","-1","1","600","400","white","gray","3","2","2","18.386999999999897","[17.034999999999854,16.724999999998545,16.68500000000131,16.599999999998545,15.755000000001019,17.25500000000102,34.294999999998254,16.18500000000131,16.700000000000728,16.6349999999984]","10"
"-1","-1","RDK","127","30518","0.0-1.0-126.0","false","a,l","a","200","true","200","1","180","0.5","2","-1","1","600","400","white","gray","3","2","2","17.98681818181814","[13.409999999999854,17.25500000000102,16.889999999999418,16.639999999999418,16.68999999999869,16.650000000001455,33.849999999998545,15.639999999999418,17.320000000003347,16.839999999996508,16.67000000000189]","11"
"-1","-1","RDK","128","30729","0.0-1.0-127.0","false","a,l","l","200","true","200","1","0","0.5","2","-1","1","600","400","white","gray","3","2","2","16.710416666666486","[17.840000000000146,16.625,16.614999999997963,16.080000000001746,17.424999999999272,16.764999999999418,17.530000000002474,16.2599999999984,15.919999999998254,16.610000000000582,16.725000000002183,16.12999999999738]","12"
"-1","-1","RDK","129","30949","0.0-1.0-128.0","false","a,l","a","200","true","200","1","180","0.5","2","-1","1","600","400","white","gray","3","2","2","16.704166666666726","[17.099999999998545,16.54500000000189,20.974999999998545,20.085000000002765,9.084999999999127,16.669999999998254,16.220000000001164,17.165000000000873,16.599999999998545,16.665000000000873,16.709999999999127,16.63000000000102]","12"
"-1","-1","RDK","130","31162","0.0-1.0-129.0","false","a,l","a","200","true","200","1","180","0.5","2","-1","1","600","400","white","gray","3","2","2","18.484000000000016","[17.1150000000016,17.375,16.94499999999971,16.70499999999811,16.6150000000016,35.86499999999796,14.150000000001455,15.81000000000131,17.344999999997526,16.915000000000873]","10"
"-1","-1","RDK","131","31367","0.0-1.0-130.0","false","a,l","l","200","true","200","1","0","0.5","2","-1","1","600","400","white","gray","3","2","2","18.20090909090934","[16.600000000002183,16.669999999998254,16.69000000000233,16.654999999998836,15.915000000000873,17.37999999999738,34.210000000002765,15.87999999999738,16.81500000000233,16.69499999999971,16.700000000000728]","11"
"-1","-1","RDK","132","31582","0.0-1.0-131.0","false","a,l","l","200","true","200","1","0","0.5","2","-1","1","600","400","white","gray","3","2","2","18.29272727272705","[17.81999999999971,16.68999999999869,16.44499999999971,16.584999999999127,15.694999999999709,17.650000000001455,33.125,17.650000000001455,16.094999999997526,16.720000000001164,16.74499999999898]","11"
"-1","-1","RDK","133","31797","0.0-1.0-132.0","false","a,l","a","200","true","200","1","180","0.5","2","-1","1","600","400","white","gray","3","2","2","16.693333333333612","[17.260000000002037,15.619999999998981,17.150000000001455,17.05999999999767,16.825000000000728,16.520000000000437,16.720000000001164,16.549999999999272,16.6150000000016,15.75499999999738,17.275000000001455,16.970000000001164]","12"
"-1","-1","RDK","134","32017","0.0-1.0-133.0","false","a,l","l","200","true","200","1","0","0.5","2","-1","1","600","400","white","gray","3","2","2","16.70333333333353","[17.034999999999854,16.68500000000131,18.174999999999272,15.970000000001164,15.184999999997672,17.465000000000146,16.7400000000016,16.50500000000102,16.654999999998836,16.669999999998254,16.705000000001746,16.650000000001455]","12"
"-1","-1","RDK","135","32232","0.0-1.0-134.0","false","a,l","a","200","true","200","1","180","0.5","2","-1","1","600","400","white","gray","3","2","2","18.30772727272746","[17.840000000000146,16.06000000000131,17.200000000000728,16.669999999998254,16.68500000000131,35.51499999999942,14.630000000001019,16.70499999999811,16.979999999999563,16.330000000001746,16.770000000000437]","11"
"-1","-1","RDK","136","32448","0.0-1.0-135.0","false","a,l","l","200","true","200","1","0","0.5","2","-1","1","600","400","white","gray","3","2","2","16.707916666666886","[17.06000000000131,15.720000000001164,17.459999999999127,16.81499999999869,16.75500000000102,16.549999999999272,18.040000000000873,15.700000000000728,16.30500000000029,15.895000000000437,17.25499999999738,16.94000000000233]","12"
"-1","-1","RDK","137","32667","0.0-1.0-136.0","false","a,l","l","200","true","200","1","0","0.5","2","-1","1","600","400","white","gray","3","2","2","16.695833333333212","[23.044999999998254,10.700000000000728,16.82999999999811,16.62000000000262,16.034999999999854,17.11999999999898,15.729999999999563,17.61999999999898,15.775000000001455,17.50500000000102,16.659999999999854,16.709999999999127]","12"
"-1","-1","RDK","138","32882","0.0-1.0-137.0","false","a,l","l","200","true","200","1","0","0.5","2","-1","1","600","400","white","gray","3","2","2","16.763750000000073","[17.779999999998836,16.75,16.614999999997963,16.630000000004657,16.709999999999127,16.619999999995343,16.835000000006403,15.964999999996508,17.31500000000233,16.674999999995634,16.665000000000873,16.6050000000032]","12"
"-1","-1","RDK","139","33097","0.0-1.0-138.0","false","a,l","l","200","true","200","1","0","0.5","2","-1","1","600","400","white","gray","3","2","2","16.718333333332946","[17.189999999995052,15.735000000000582,17.110000000000582,17.17500000000291,16.659999999996217,16.645000000004075,16.665000000000873,15.985000000000582,17.344999999993888,15.680000000000291,17.31500000000233,17.114999999997963]","12"
"-1","-1","RDK","140","33317","0.0-1.0-139.0","false","a,l","a","200","true","200","1","180","0.5","2","-1","1","600","400","white","gray","3","2","2","16.71666666666715","[17.06999999999971,16.685000000004948,16.64999999999418,16.290000000000873,17.49500000000262,16.584999999999127,16.55500000000029,16.770000000004075,16.50999999999476,16.650000000001455,16.7300000000032,16.610000000000582]","12"
"-1","-1","RDK","141","33530","0.0-1.0-140.0","false","a,l","l","200","true","200","1","0","0.5","2","-1","1","600","400","white","gray","3","2","2","18.45550000000003","[17.889999999999418,16.705000000001746,16.589999999996508,16.625,16,17.29500000000553,35.36999999999534,15.35000000000582,16.169999999998254,16.55999999999767]","10"
"-1","-1","RDK","142","33733","0.0-1.0-141.0","false","a,l","a","200","true","200","1","180","0.5","2","-1","1","600","400","white","gray","3","2","2","18.04909090909099","[15.260000000002037,16.514999999999418,16.81999999999971,16.084999999999127,17.18000000000029,16.705000000001746,34.05500000000029,15.994999999995343,16.715000000003783,15.569999999999709,17.639999999999418]","11"
"-1","-1","RDK","143","33949","0.0-1.0-142.0","false","a,l","a","200","true","200","1","180","0.5","2","-1","1","600","400","white","gray","3","2","2","18.228181818182005","[17.110000000000582,16.580000000001746,16.544999999998254,16.62000000000262,16.650000000001455,15.760000000002037,34.7899999999936,16.385000000002037,16.6050000000032,16.669999999998254,16.794999999998254]","11"
"-1","-1","RDK","144","34165","0.0-1.0-143.0","false","a,l","a","200","true","200","1","180","0.5","2","-1","1","600","400","white","gray","3","2","2","16.707916666666886","[16.985000000000582,16.955000000001746,16.6449999999968,16.735000000000582,16.459999999999127,16.610000000000582,16.714999999996508,25.875,6.735000000000582,17.470000000001164,16.385000000002037,16.92500000000291]","12"
"-1","-1","RDK","145","34380","0.0-1.0-144.0","false","a,l","a","200","true","200","1","180","0.5","2","-1","1","600","400","white","gray","3","2","2","18.175000000000264","[17.18000000000029,16.779999999998836,16.54500000000553,35.78499999999622,14.275000000001455,16.044999999998254,17.235000000000582,16.669999999998254,16.655000000006112,16.69499999999971,16.05999999999767]","11"
"-1","-1","RDK","146","34600","0.0-1.0-145.0","false","a,l","a","200","true","200","1","180","0.5","2","-1","1","600","400","white","gray","3","2","2","18.219090909090564","[17.104999999995925,16.595000000001164,16.705000000001746,15.934999999997672,17.375,15.694999999999709,37.21500000000378,13.885000000002037,16.604999999995925,16.69000000000233,16.604999999995925]","11"
"-1","-1","RDK","147","34813","0.0-1.0-146.0","false","a,l","a","200","true","200","1","180","0.5","2","-1","1","600","400","white","gray","3","2","2","18.38949999999968","[16.2300000000032,17.464999999996508,16.81500000000233,16.654999999998836,16.635000000002037,15.764999999999418,35.104999999995925,15.209999999999127,17.580000000001746,16.43499999999767]","10"
"-1","-1","RDK","148","35018","0.0-1.0-147.0","false","a,l","a","200","true","200","1","180","0.5","2","-1","1","600","400","white","gray","3","2","2","18.19727272727257","[16.575000000004366,16.689999999995052,16.705000000001746,16.660000000003492,15.974999999998545,17.510000000002037,33.349999999998545,16.994999999995343,16.285000000003492,16.739999999997963,16.68499999999767]","11"
"-1","-1","RDK","149","35233","0.0-1.0-148.0","false","a,l","a","200","true","200","1","180","0.5","2","-1","1","600","400","white","gray","3","2","2","16.74291666666674","[17.419999999998254,16.785000000003492,16.514999999999418,16.724999999998545,16.915000000000873,16.419999999998254,15.735000000000582,17.5,16.889999999999418,16.68499999999767,16.794999999998254,16.530000000006112]","12"
"-1","-1","RDK","150","35452","0.0-1.0-149.0","false","a,l","l","200","true","200","1","0","0.5","2","-1","1","600","400","white","gray","3","2","2","16.70624999999988","[17.19999999999709,15.890000000006694,17.239999999997963,16.739999999997963,16.69000000000233,16.514999999999418,16.94000000000233,16.5199999999968,16.67500000000291,15.784999999996217,17.43499999999767,16.845000000001164]","12"
"-1","-1","RDK","151","35669","0.0-1.0-150.0","false","a,l","a","200","true","200","1","180","0.5","2","-1","1","600","400","white","gray","3","2","2","18.2695454545458","[20.335000000006403,13.559999999997672,16.619999999995343,16.700000000004366,15.944999999999709,33.205000000001746,17.290000000000873,17.039999999993597,16.75,16.685000000004948,16.834999999999127]","11"
"-1","-1","RDK","152","35883","0.0-1.0-151.0","false","a,l","a","200","true","200","1","180","0.5","2","-1","1","600","400","white","gray","3","2","2","18.272272727272306","[17.659999999996217,16.510000000002037,16.854999999995925,16.67500000000291,16.6050000000032,16.69999999999709,33.65999999999622,20.19000000000233,12.885000000002037,16.599999999998545,16.654999999998836]","11"
"-1","-1","RDK","153","36097","0.0-1.0-152.0","false","a,l","a","200","true","200","1","180","0.5","2","-1","1","600","400","white","gray","3","2","2","18.37450000000026","[17.089999999996508,15.705000000001746,17.375,17.014999999999418,16.599999999998545,16.81999999999971,33.7100000000064,16.939999999995052,15.310000000004948,17.18000000000029]","10"
"-1","-1","RDK","154","36303","0.0-1.0-153.0","false","a,l","a","200","true","200","1","180","0.5","2","-1","1","600","400","white","gray","3","2","2","18.063181818181793","[15.410000000003492,16.45499999999447,16.68000000000029,16.764999999999418,16.5,15.885000000002037,34.970000000001164,16.044999999998254,16.510000000002037,17.035000000003492,16.439999999995052]","11"
"-1","-1","RDK","155","36518","0.0-1.0-154.0","false","a,l","l","200","true","200","1","0","0.5","2","-1","1","600","400","white","gray","3","2","2","16.686250000000047","[16.55999999999767,17.19000000000233,16.529999999998836,16.660000000003492,16.589999999996508,16.665000000000873,16.62999999999738,16.720000000001164,16.169999999998254,17.255000000004657,16.659999999996217,16.6050000000032]","12"
"-1","-1","RDK","156","36733","0.0-1.0-155.0","false","a,l","a","200","true","200","1","180","0.5","2","-1","1","600","400","white","gray","3","2","2","16.71875","[17.109999999993306,16.710000000006403,15.680000000000291,17.38499999999476,32.63500000000204,2.0350000000034925,16.169999999998254,16.19499999999971,16.650000000001455,16.939999999995052,15.715000000003783,17.400000000001455]","12"
"-1","-1","RDK","157","36952","0.0-1.0-156.0","false","a,l","l","200","true","200","1","0","0.5","2","-1","1","600","400","white","gray","3","2","2","18.21409090909054","[17.299999999995634,16.590000000003783,16.62000000000262,16.544999999998254,16.62999999999738,15.819999999999709,34.88500000000204,15.955000000001746,16.669999999998254,16.69499999999971,16.6449999999968]","11"
"-1","-1","RDK","158","37167","0.0-1.0-157.0","false","a,l","l","200","true","200","1","0","0.5","2","-1","1","600","400","white","gray","3","2","2","18.24590909090925","[16.375,17.610000000000582,16.494999999995343,16.595000000001164,16.705000000001746,16.75499999999738,33.5,16.470000000001164,16.724999999998545,16.780000000006112,16.69499999999971]","11"
"-1","-1","RDK","159","37384","0.0-1.0-158.0","false","a,l","l","200","true","200","1","0","0.5","2","-1","1","600","400","white","gray","3","2","2","18.21363636363623","[17.614999999997963,16.264999999999418,15.614999999997963,17.31999999999971,17.110000000000582,16.840000000003783,34.06999999999971,16.235000000000582,16.220000000001164,15.604999999995925,17.455000000001746]","11"
"-1","-1","RDK","160","37600","0.0-1.0-159.0","false","a,l","a","200","true","200","1","180","0.5","2","-1","1","600","400","white","gray","3","2","2","16.711249999999684","[17.18000000000029,16.614999999997963,16.614999999997963,16.630000000004657,16.909999999996217,15.595000000001164,17.279999999998836,17.040000000000873,16.69999999999709,16.665000000000873,16.56500000000233,16.739999999997963]","12"
"-1","-1","RDK","161","37816","0.0-1.0-160.0","false","a,l","a","200","true","200","1","180","0.5","2","-1","1","600","400","white","gray","3","2","2","16.691666666666304","[16.354999999995925,17.275000000001455,16.650000000001455,16.659999999996217,16.580000000001746,16.68000000000029,16.68499999999767,16.125,16.55000000000291,17.544999999998254,16.465000000003783,16.729999999995925]","12"
"-1","-1","RDK","162","38034","0.0-1.0-161.0","false","a,l","l","200","true","200","1","0","0.5","2","-1","1","600","400","white","gray","3","2","2","18.214545454545508","[17.13499999999476,16.780000000006112,16.55999999999767,16.154999999998836,33.19999999999709,17.380000000004657,16.80999999999767,16.55999999999767,16.765000000006694,15.70499999999447,17.310000000004948]","11"
"-1","-1","RDK","163","38251","0.0-1.0-162.0","false","a,l","a","200","true","200","1","180","0.5","2","-1","1","600","400","white","gray","3","2","2","16.701249999999465","[17.30999999999767,16.485000000000582,16.794999999998254,16.55000000000291,16.604999999995925,15.985000000000582,17.360000000000582,16.68499999999767,16.67000000000553,16.64999999999418,16.650000000001455,16.669999999998254]","12"
"-1","-1","RDK","164","38467","0.0-1.0-163.0","false","a,l","a","200","true","200","1","180","0.5","2","-1","1","600","400","white","gray","3","2","2","16.725416666666813","[16.285000000003492,17.55000000000291,16.69499999999971,16.639999999999418,16.57999999999447,16.700000000004366,30.989999999997963,1.8450000000011642,17.014999999999418,17.07499999999709,16.6050000000032,16.724999999998545]","12"
"-1","-1","RDK","165","38684","0.0-1.0-164.0","false","a,l","l","200","true","200","1","0","0.5","2","-1","1","600","400","white","gray","3","2","2","18.206363636364006","[17.255000000004657,16.564999999995052,16.685000000004948,16.05500000000029,17.159999999996217,16.735000000000582,34.099999999998545,16.06500000000233,16.544999999998254,15.865000000005239,17.239999999997963]","11"
"-1","-1","RDK","166","38901","0.0-1.0-165.0","false","a,l","l","200","true","200","1","0","0.5","2","-1","1","600","400","white","gray","3","2","2","16.689999999999902","[17.125,16.560000000004948,16.63499999999476,16.790000000000873,16.739999999997963,15.715000000003783,17.18000000000029,16.94499999999971,16.589999999996508,16.67500000000291,16.715000000003783,16.609999999993306]","12"
"-1","-1","RDK","167","39116","0.0-1.0-166.0","false","a,l","l","200","true","200","1","0","0.5","2","-1","1","600","400","white","gray","3","2","2","16.693749999999756","[19.104999999995925,29.24500000000262,2.150000000001455,17.689999999995052,15.62000000000262,16.62999999999738,16.970000000001164,16.380000000004657,15.924999999995634,17.30500000000029,16.840000000003783,16.464999999996508]","12"
"-1","-1","RDK","168","39332","0.0-1.0-167.0","false","a,l","l","200","true","200","1","0","0.5","2","-1","1","600","400","white","gray","3","2","2","16.667083333333114","[17.07499999999709,15.965000000003783,17.3949999999968,16.05999999999767,16.56999999999971,20.145000000004075,21.404999999998836,9.160000000003492,16.639999999999418,16.654999999998836,15.720000000001164,17.214999999996508]","12"
"-1","-1","RDK","169","39548","0.0-1.0-168.0","false","a,l","l","200","true","200","1","0","0.5","2","-1","1","600","400","white","gray","3","2","2","18.38949999999968","[17.07499999999709,16.720000000001164,15.589999999996508,17.72500000000582,16.669999999998254,15.654999999998836,35.01000000000204,16.125,16.654999999998836,16.669999999998254]","10"
"-1","-1","RDK","170","39751","0.0-1.0-169.0","false","a,l","l","200","true","200","1","0","0.5","2","-1","1","600","400","white","gray","3","2","2","16.58124999999988","[15.434999999997672,15.835000000006403,17.57499999999709,16.720000000001164,16.580000000001746,16.8949999999968,16.385000000002037,18.339999999996508,15.49500000000262,15.459999999999127,17.489999999997963,16.764999999999418]","12"
"-1","-1","RDK","171","39970","0.0-1.0-170.0","false","a,l","a","200","true","200","1","180","0.5","2","-1","1","600","400","white","gray","3","2","2","18.162727272727352","[16.334999999999127,16.709999999999127,16.599999999998545,16.630000000004657,16.029999999998836,17.43000000000029,33.595000000001164,16.354999999995925,16.650000000001455,16.68000000000029,16.775000000001455]","11"
"-1","-1","RDK","172","40184","0.0-1.0-171.0","false","a,l","l","200","true","200","1","0","0.5","2","-1","1","600","400","white","gray","3","2","2","16.73458333333292","[17.584999999999127,16.55500000000029,16.659999999996217,16.62000000000262,16.669999999998254,16.660000000003492,15.665000000000873,26.889999999999418,7.57499999999709,16.660000000003492,16.63499999999476,16.639999999999418]","12"
"-1","-1","RDK","173","40399","0.0-1.0-172.0","false","a,l","a","200","true","200","1","180","0.5","2","-1","1","600","400","white","gray","3","2","2","18.157727272727325","[17.154999999998836,15.739999999997963,17.380000000004657,35.974999999998545,14.284999999996217,16.6050000000032,16.714999999996508,16.685000000004948,15.779999999998836,17.50499999999738,15.910000000003492]","11"
"-1","-1","RDK","174","40620","0.0-1.0-173.0","false","a,l","a","200","true","200","1","180","0.5","2","-1","1","600","400","white","gray","3","2","2","18.227272727272727","[17.029999999998836,16.67500000000291,16.674999999995634,16.72500000000582,15.864999999997963,17.474999999998545,35.51499999999942,15.069999999999709,15.430000000000291,17.419999999998254,16.62000000000262]","11"
"-1","-1","RDK","175","40834","0.0-1.0-174.0","false","a,l","a","200","true","200","1","180","0.5","2","-1","1","600","400","white","gray","3","2","2","16.739166666666886","[17.8550000000032,16.419999999998254,16.709999999999127,16.720000000001164,16.540000000000873,16.965000000003783,15.349999999998545,19.95499999999447,21.720000000001164,9.305000000000291,16.61500000000524,16.714999999996508]","12"
"-1","-1","RDK","176","41049","0.0-1.0-175.0","false","a,l","l","200","true","200","1","0","0.5","2","-1","1","600","400","white","gray","3","2","2","18.377500000000147","[17.150000000001455,15.654999999998836,17.345000000001164,17.014999999999418,16.639999999999418,16.639999999999418,33.13000000000466,17.69499999999971,15.25,17.25499999999738]","10"
"-1","-1","RDK","177","41255","0.0-1.0-176.0","false","a,l","l","200","true","200","1","0","0.5","2","-1","1","600","400","white","gray","3","2","2","16.52833333333304","[14.909999999996217,18.30000000000291,15.534999999996217,16.095000000001164,16.785000000003492,15.869999999995343,17.68000000000029,16.510000000002037,16.714999999996508,16.505000000004657,16.775000000001455,16.659999999996217]","12"
"-1","-1","RDK","178","41468","0.0-1.0-177.0","false","a,l","a","200","true","200","1","180","0.5","2","-1","1","600","400","white","gray","3","2","2","16.732083333333623","[16.590000000003783,17.659999999996217,16.260000000002037,16.55500000000029,33.05999999999767,1.889999999999418,15.694999999999709,15.260000000002037,17.214999999996508,17.075000000004366,16.705000000001746,16.81999999999971]","12"
"-1","-1","RDK","179","41688","0.0-1.0-178.0","false","a,l","a","200","true","200","1","180","0.5","2","-1","1","600","400","white","gray","3","2","2","16.682916666666642","[17.279999999998836,16.235000000000582,16,17.635000000002037,16.919999999998254,16.735000000000582,17.284999999996217,19.075000000004366,13.345000000001164,16.619999999995343,15.715000000003783,17.349999999998545]","12"
"-1","-1","RDK","180","41903","0.0-1.0-179.0","false","a,l","a","200","true","200","1","180","0.5","2","-1","1","600","400","white","gray","3","2","2","18.238181818181395","[17.07499999999709,16.264999999999418,17.110000000000582,16.665000000000873,16.635000000002037,15.814999999995052,34.86000000000058,16.30000000000291,16.474999999998545,16.81500000000233,16.604999999995925]","11"
"-1","-1","RDK","181","42119","0.0-1.0-180.0","false","a,l","a","200","true","200","1","180","0.5","2","-1","1","600","400","white","gray","3","2","2","18.24000000000061","[22.275000000001455,11.645000000004075,16.720000000001164,16.625,16.544999999998254,16.57499999999709,33.94000000000233,15.635000000002037,17.479999999995925,16.700000000004366,16.5]","11"
"-1","-1","RDK","182","42335","0.0-1.0-181.0","false","a,l","a","200","true","200","1","180","0.5","2","-1","1","600","400","white","gray","3","2","2","18.218636363636257","[17.014999999999418,16.614999999997963,16.68000000000029,16.125,17.06500000000233,16.75499999999738,33.67000000000553,16.32499999999709,16.790000000000873,15.764999999999418,17.599999999998545]","11"
"-1","-1","RDK","183","42553","0.0-1.0-182.0","false","a,l","l","200","true","200","1","0","0.5","2","-1","1","600","400","white","gray","3","2","2","16.70041666666657","[16.169999999998254,17.44499999999971,23.974999999998545,16.845000000001164,9.25499999999738,15.810000000004948,17.385000000002037,16.814999999995052,16.735000000000582,16.584999999999127,16.55500000000029,16.830000000001746]","12"
"-1","-1","RDK","184","42767","0.0-1.0-183.0","false","a,l","l","200","true","200","1","0","0.5","2","-1","1","600","400","white","gray","3","2","2","18.228636363636312","[16.409999999996217,17.42500000000291,16.625,15.849999999998545,17.43000000000029,35.69499999999971,14.334999999999127,16.080000000001746,17.25,16.764999999999418,16.650000000001455]","11"
"-1","-1","RDK","185","42985","0.0-1.0-184.0","false","a,l","a","200","true","200","1","180","0.5","2","-1","1","600","400","white","gray","3","2","2","18.208636363636867","[16.535000000003492,17.264999999999418,15.709999999999127,17.12999999999738,17.2300000000032,16.69000000000233,33.68499999999767,16.955000000001746,16.139999999999418,15.599999999998545,17.3550000000032]","11"
"-1","-1","RDK","186","43201","0.0-1.0-185.0","false","a,l","l","200","true","200","1","0","0.5","2","-1","1","600","400","white","gray","3","2","2","16.692083333333358","[17.174999999995634,16.54500000000553,16.889999999999418,16.5,16.764999999999418,15.764999999999418,17.514999999999418,16.540000000000873,16.614999999997963,16.635000000002037,16.674999999995634,16.685000000004948]","12"
"-1","-1","RDK","187","43418","0.0-1.0-186.0","false","a,l","l","200","true","200","1","0","0.5","2","-1","1","600","400","white","gray","3","2","2","16.714166666666642","[16.275000000001455,17.43000000000029,16.779999999998836,16.674999999995634,16.485000000000582,16.779999999998836,31.220000000001164,1.8150000000023283,16.839999999996508,17.17500000000291,16.529999999998836,16.56500000000233]","12"
"-1","-1","RDK","188","43635","0.0-1.0-187.0","false","a,l","a","200","true","200","1","180","0.5","2","-1","1","600","400","white","gray","3","2","2","16.699166666667224","[17.12000000000262,17.739999999997963,16.5,15.395000000004075,17.220000000001164,16.720000000001164,16.57999999999447,16.790000000000873,16.669999999998254,16.47500000000582,15.689999999995052,17.49000000000524]","12"
"-1","-1","RDK","189","43853","0.0-1.0-188.0","false","a,l","l","200","true","200","1","0","0.5","2","-1","1","600","400","white","gray","3","2","2","18.216363636363397","[17.19999999999709,16.56500000000233,16.595000000001164,16.93000000000029,33.13999999999942,16.709999999999127,16.665000000000873,16.564999999995052,16.655000000006112,16.665000000000873,16.689999999995052]","11"
"-1","-1","RDK","190","44069","0.0-1.0-189.0","false","a,l","l","200","true","200","1","0","0.5","2","-1","1","600","400","white","gray","3","2","2","18.242272727272805","[16.169999999998254,17.49000000000524,16.804999999993015,15.685000000004948,17.604999999995925,16.639999999999418,35.41500000000087,14.415000000000873,17.099999999998545,16.220000000001164,17.12000000000262]","11"
"-1","-1","RDK","191","44286","0.0-1.0-190.0","false","a,l","l","200","true","200","1","0","0.5","2","-1","1","600","400","white","gray","3","2","2","18.24363636363639","[17.43499999999767,16.715000000003783,16.6449999999968,15.959999999999127,17.37000000000262,16.645000000004075,33.474999999998545,16.974999999998545,16.31500000000233,15.514999999999418,17.62999999999738]","11"
"-1","-1","RDK","192","44504","0.0-1.0-191.0","false","a,l","a","200","true","200","1","180","0.5","2","-1","1","600","400","white","gray","3","2","2","18.220909090909117","[17.14999999999418,16.61500000000524,16.659999999996217,16.56999999999971,16.61500000000524,15.634999999994761,34.900000000001455,16.330000000001746,16.580000000001746,16.909999999996217,16.465000000003783]","11"
"-1","-1","RDK","193","44720","0.0-1.0-192.0","false","a,l","l","200","true","200","1","0","0.5","2","-1","1","600","400","white","gray","3","2","2","18.24590909090925","[16.31999999999971,17.520000000004075,16.705000000001746,16.57499999999709,16.55000000000291,16.68499999999767,33.93499999999767,15.505000000004657,17.2699999999968,16.889999999999418,16.75]","11"
"-1","-1","RDK","194","44934","0.0-1.0-193.0","false","a,l","l","200","true","200","1","0","0.5","2","-1","1","600","400","white","gray","3","2","2","16.649583333333187","[17.029999999998836,16.62999999999738,23.24000000000524,17.674999999995634,9.194999999999709,16.6050000000032,16.724999999998545,16.7300000000032,16.57499999999709,16.665000000000873,16.650000000001455,16.07499999999709]","12"
"-1","-1","RDK","195","45153","0.0-1.0-194.0","false","a,l","l","200","true","200","1","0","0.5","2","-1","1","600","400","white","gray","3","2","2","18.229999999999894","[17.054999999993015,16.650000000001455,16.639999999999418,16.665000000000873,16.67500000000291,35.419999999998254,14.830000000001746,16.514999999999418,16.68000000000029,16.80999999999767,16.590000000003783]","11"
"-1","-1","RDK","196","45369","0.0-1.0-195.0","false","a,l","a","200","true","200","1","180","0.5","2","-1","1","600","400","white","gray","3","2","2","18.242727272727112","[16.30000000000291,17.43000000000029,16.964999999996508,16.4800000000032,16.609999999993306,16.8550000000032,33.62999999999738,15.835000000006403,17.114999999997963,16.919999999998254,16.529999999998836]","11"
"-1","-1","RDK","197","45586","0.0-1.0-196.0","false","a,l","a","200","true","200","1","180","0.5","2","-1","1","600","400","white","gray","3","2","2","18.194545454545402","[22.665000000000873,11.134999999994761,16.6050000000032,15.794999999998254,17.395000000004075,16.344999999993888,34.13000000000466,16.439999999995052,16.49500000000262,16.75499999999738,16.380000000004657]","11"
"-1","-1","RDK","198","45804","0.0-1.0-197.0","false","a,l","l","200","true","200","1","0","0.5","2","-1","1","600","400","white","gray","3","2","2","18.227727272727694","[17.340000000003783,16.69999999999709,16.435000000004948,16.589999999996508,16.654999999998836,15.67500000000291,34.75,16.55999999999767,16.470000000001164,16.74500000000262,16.584999999999127]","11"
"-1","-1","RDK","199","46018","0.0-1.0-198.0","false","a,l","a","200","true","200","1","180","0.5","2","-1","1","600","400","white","gray","3","2","2","16.70749999999983","[16.639999999999418,16.8550000000032,16.93499999999767,16.635000000002037,16.639999999999418,16.69000000000233,16.674999999995634,25.845000000001164,6.610000000000582,17.459999999999127,16.80999999999767,16.69499999999971]","12"
"-1","-1","RDK","200","46238","0.0-1.0-199.0","false","a,l","l","200","true","200","1","0","0.5","2","-1","1","600","400","white","gray","3","2","2","18.169999999999575","[17.114999999997963,16.669999999998254,16.709999999999127,35.4800000000032,14.589999999996508,16.56999999999971,16.67000000000553,16.689999999995052,16.639999999999418,16.69499999999971,16.040000000000873]","11"
