"rt","key_press","trial_type","trial_index","time_elapsed","internal_node_id","correct","choices","correct_choice","trial_duration","response_ends_trial","number_of_dots","number_of_sets","coherent_direction","coherence","dot_radius","dot_life","move_distance","aperture_width","aperture_height","dot_color","background_color","RDK_type","aperture_type","reinsert_type","frame_rate","frame_rate_array","number_of_frames"
"1863","13","text","0","1865","0.0-0.0","","","","","","","","","","","","","","","","","","","","","",""
"-1","-1","RDK","1","3093","0.0-1.0-0.0","false","a,l","l","200","true","200","1","0","0.5","2","-1","1","600","400","white","gray","3","2","2","16.68333333333332","[18,15.699999999999818,16.59999999999991,16.600000000000364,16.800000000000182,16.499999999999545,16.59999999999991,16.400000000000546,17,15.499999999999545,17.59999999999991,16.90000000000009]","12"
"-1","-1","RDK","2","3309","0.0-1.0-1.0","false","a,l","a","200","true","200","1","180","0.5","2","-1","1","600","400","white","gray","3","2","2","18.209090909090925","[27.200000000000273,35.19999999999982,5.700000000000273,15.5,16.699999999999818,16.699999999999818,16.700000000000273,16.199999999999818,17.100000000000364,16.699999999999363,16.600000000000364]","11"
"-1","-1","RDK","3","3524","0.0-1.0-2.0","false","a,l","a","200","true","200","1","180","0.5","2","-1","1","600","400","white","gray","3","2","2","16.708333333333297","[17.399999999999636,16.300000000000182,15.599999999999909,17.800000000000182,23.59999999999991,9.599999999999909,16.700000000000273,16.799999999999727,16.700000000000273,16.59999999999991,16.700000000000273,16.699999999999363]","12"
"-1","-1","RDK","4","3743","0.0-1.0-3.0","false","a,l","a","200","true","200","1","180","0.5","2","-1","1","600","400","white","gray","3","2","2","18.200000000000024","[18.300000000000182,15.199999999999818,16.800000000000182,16.59999999999991,16.700000000000273,35.40000000000009,14.499999999999545,16.700000000000273,16.699999999999818,16.700000000000273,16.59999999999991]","11"
"-1","-1","RDK","5","3963","0.0-1.0-4.0","false","a,l","l","200","true","200","1","0","0.5","2","-1","1","600","400","white","gray","3","2","2","18.172727272727283","[27,25.90000000000009,13.900000000000091,16.699999999999818,16.59999999999991,16.600000000000364,16.899999999999636,16.700000000000273,16.599999999999454,16.600000000000364,16.40000000000009]","11"
"-1","-1","RDK","6","4174","0.0-1.0-5.0","false","a,l","a","200","true","200","1","180","0.5","2","-1","1","600","400","white","gray","3","2","2","16.71818181818187","[17.400000000000546,16.49999999999909,16.600000000001273,16.699999999999818,24.299999999999272,8.900000000000546,16.699999999999818,16.800000000000182,16.699999999999818,16.699999999999818,16.600000000000364]","11"
"-1","-1","RDK","7","4376","0.0-1.0-6.0","false","a,l","a","200","true","200","1","180","0.5","2","-1","1","600","400","white","gray","3","2","2","18.181818181818183","[24.600000000000364,35.29999999999927,6.5,16.900000000000546,16.5,16.799999999999272,16.700000000000728,16.699999999999818,16.599999999999454,15.900000000000546,17.5]","11"
"-1","-1","RDK","8","4594","0.0-1.0-7.0","false","a,l","a","200","true","200","1","180","0.5","2","-1","1","600","400","white","gray","3","2","2","16.691666666666606","[18.5,14.300000000000182,17.400000000000546,16.49999999999909,16.100000000000364,16.49999999999909,17.5,16.700000000000728,16.800000000000182,16.699999999999818,16.5,16.799999999999272]","12"
"-1","-1","RDK","9","4809","0.0-1.0-8.0","false","a,l","l","200","true","200","1","0","0.5","2","-1","1","600","400","white","gray","3","2","2","16.691666666666606","[17.399999999998727,16.100000000000364,16.80000000000109,16.599999999999454,16.699999999999818,16.599999999999454,24.300000000000182,8,31.199999999999818,3.100000000000364,16.699999999999818,16.800000000000182]","12"
"-1","-1","RDK","10","5025","0.0-1.0-9.0","false","a,l","a","200","true","200","1","180","0.5","2","-1","1","600","400","white","gray","3","2","2","16.69166666666676","[17.30000000000109,16.399999999999636,16.599999999999454,16.600000000000364,19.400000000000546,13.99999999999909,16.600000000000364,16.800000000000182,16.699999999999818,16.599999999999454,16.699999999999818,16.600000000001273]","12"
"-1","-1","RDK","11","5244","0.0-1.0-10.0","false","a,l","a","200","true","200","1","180","0.5","2","-1","1","600","400","white","gray","3","2","2","18.209090909090925","[17.300000000000182,16.199999999999818,15.800000000000182,17.600000000000364,16.599999999999454,35.30000000000018,14.300000000000182,17,16.800000000000182,16.799999999999272,16.600000000000364]","11"
"-1","-1","RDK","12","5461","0.0-1.0-11.0","false","a,l","l","200","true","200","1","0","0.5","2","-1","1","600","400","white","gray","3","2","2","18.209090909090843","[27.69999999999891,25.900000000000546,12.300000000000182,17.799999999999272,16.600000000000364,16.700000000000728,16.599999999999454,16.699999999999818,23.600000000000364,9.699999999999818,16.699999999999818]","11"
"-1","-1","RDK","13","5676","0.0-1.0-12.0","false","a,l","a","200","true","200","1","180","0.5","2","-1","1","600","400","white","gray","3","2","2","16.68333333333332","[16.800000000000182,16.099999999999454,17.100000000000364,28.100000000000364,4.599999999999454,16.800000000000182,17.299999999999272,16.700000000000728,16.600000000000364,16.800000000000182,16.599999999999454,16.699999999999818]","12"
"-1","-1","RDK","14","5891","0.0-1.0-13.0","false","a,l","l","200","true","200","1","0","0.5","2","-1","1","600","400","white","gray","3","2","2","18.42999999999993","[17,16.900000000000546,16.899999999999636,16.699999999999818,16.700000000000728,36.69999999999891,13.200000000000728,16.800000000000182,16.69999999999891,16.699999999999818]","10"
"-1","-1","RDK","15","6094","0.0-1.0-14.0","false","a,l","l","200","true","200","1","0","0.5","2","-1","1","600","400","white","gray","3","2","2","16.658333333333378","[17.199999999999818,14.900000000001455,31.899999999998727,3,15.400000000000546,17.49999999999909,16.600000000001273,16.699999999999818,16.699999999999818,16.699999999999818,16.600000000000364,16.699999999999818]","12"
"-1","-1","RDK","16","6312","0.0-1.0-15.0","false","a,l","a","200","true","200","1","180","0.5","2","-1","1","600","400","white","gray","3","2","2","18.200000000000067","[17.300000000000182,16.199999999999818,16.600000000000364,16.69999999999891,44.600000000000364,4.600000000000364,17.199999999999818,17,16.699999999999818,15.699999999999818,17.600000000001273]","11"
"-1","-1","RDK","17","6527","0.0-1.0-16.0","false","a,l","a","200","true","200","1","180","0.5","2","-1","1","600","400","white","gray","3","2","2","16.68333333333332","[21.199999999999818,26.100000000000364,2.300000000000182,17.199999999999818,16.699999999999818,15.800000000000182,17.600000000000364,16.69999999999891,16.600000000000364,16.800000000000182,16.600000000000364,16.599999999999454]","12"
"-1","-1","RDK","18","6744","0.0-1.0-17.0","false","a,l","l","200","true","200","1","0","0.5","2","-1","1","600","400","white","gray","3","2","2","16.69166666666668","[16.900000000000546,16.699999999999818,16.699999999999818,25.600000000000364,6.799999999999272,17.400000000000546,16.800000000000182,16.699999999999818,16.699999999999818,16.700000000000728,16.599999999999454,16.699999999999818]","12"
"-1","-1","RDK","19","6960","0.0-1.0-18.0","false","a,l","l","200","true","200","1","0","0.5","2","-1","1","600","400","white","gray","3","2","2","16.683333333333394","[18.100000000000364,15.399999999999636,16.699999999999818,16.5,16.800000000000182,22.699999999999818,10.600000000000364,16.700000000000728,16.799999999999272,16.599999999999454,16.700000000000728,16.600000000000364]","12"
"-1","-1","RDK","20","7178","0.0-1.0-19.0","false","a,l","l","200","true","200","1","0","0.5","2","-1","1","600","400","white","gray","3","2","2","18.21818181818187","[24.5,27.699999999999818,14.699999999999818,16.800000000000182,16.699999999999818,16.600000000000364,16.699999999999818,16.699999999999818,16.399999999999636,16.900000000000546,16.700000000000728]","11"
"-1","-1","RDK","21","7394","0.0-1.0-20.0","false","a,l","l","200","true","200","1","0","0.5","2","-1","1","600","400","white","gray","3","2","2","16.691666666666606","[17.299999999999272,16.400000000000546,16.49999999999909,16.700000000000728,15.600000000000364,17.800000000000182,16.599999999999454,16.699999999999818,16.699999999999818,16.700000000000728,16,17.299999999999272]","12"
"-1","-1","RDK","22","7612","0.0-1.0-21.0","false","a,l","l","200","true","200","1","0","0.5","2","-1","1","600","400","white","gray","3","2","2","16.69999999999997","[17.300000000000182,15.899999999999636,17.099999999999454,16,17.30000000000109,16.69999999999891,25.200000000000728,7.800000000000182,16.899999999999636,16.900000000000546,16.599999999999454,16.699999999999818]","12"
"-1","-1","RDK","23","7828","0.0-1.0-22.0","false","a,l","a","200","true","200","1","180","0.5","2","-1","1","600","400","white","gray","3","2","2","18.209090909091007","[18.100000000001273,39.69999999999982,8.199999999998909,17.600000000000364,16.699999999999818,15.700000000000728,17.699999999999818,16.699999999999818,16.5,16.600000000000364,16.800000000000182]","11"
"-1","-1","RDK","24","8044","0.0-1.0-23.0","false","a,l","a","200","true","200","1","180","0.5","2","-1","1","600","400","white","gray","3","2","2","16.700000000000045","[17.299999999999272,16.200000000000728,16.700000000000728,16.699999999999818,19.099999999999454,14.199999999998909,16.800000000000182,16.699999999999818,16.600000000000364,16.700000000000728,16.699999999999818,16.700000000000728]","12"
"-1","-1","RDK","25","8261","0.0-1.0-24.0","false","a,l","l","200","true","200","1","0","0.5","2","-1","1","600","400","white","gray","3","2","2","18.218181818181787","[17.399999999999636,16.299999999999272,16.600000000000364,15.700000000000728,17.700000000000728,35.600000000000364,13.600000000000364,17.399999999997817,16.799999999999272,16.600000000000364,16.700000000000728]","11"
"-1","-1","RDK","26","8477","0.0-1.0-25.0","false","a,l","l","200","true","200","1","0","0.5","2","-1","1","600","400","white","gray","3","2","2","18.1999999999999","[18.19999999999891,37.79999999999927,10.899999999999636,16.600000000000364,16.80000000000109,16.69999999999891,16.700000000000728,16.600000000000364,16.700000000000728,16.69999999999891,16.5]","11"
"-1","-1","RDK","27","8695","0.0-1.0-26.0","false","a,l","a","200","true","200","1","180","0.5","2","-1","1","600","400","white","gray","3","2","2","16.69999999999997","[18.599999999998545,15.400000000001455,16.5,16.5,30.5,2.2000000000007276,17,16.799999999999272,16.899999999999636,16.600000000000364,16.799999999999272,16.600000000000364]","12"
"-1","-1","RDK","28","8909","0.0-1.0-27.0","false","a,l","a","200","true","200","1","180","0.5","2","-1","1","600","400","white","gray","3","2","2","16.783333333333303","[18,16.899999999999636,16.49999999999818,16.700000000000728,16.700000000000728,16.600000000000364,27.299999999999272,5.300000000001091,17.299999999999272,16.69999999999891,15.800000000001091,17.600000000000364]","12"
"-1","-1","RDK","29","9128","0.0-1.0-28.0","false","a,l","l","200","true","200","1","0","0.5","2","-1","1","600","400","white","gray","3","2","2","18.21818181818195","[19.700000000000728,39.100000000000364,8.099999999998545,16.69999999999891,16.700000000000728,16.600000000000364,16.80000000000109,16.600000000000364,16.600000000000364,16.599999999998545,16.900000000001455]","11"
"-1","-1","RDK","30","9345","0.0-1.0-29.0","false","a,l","l","200","true","200","1","0","0.5","2","-1","1","600","400","white","gray","3","2","2","16.683333333333394","[17.200000000000728,16.299999999999272,16.600000000000364,16.80000000000109,20.899999999997817,11.900000000001455,17.200000000000728,16,17.399999999997817,16.700000000000728,16.600000000000364,16.600000000000364]","12"
"-1","-1","RDK","31","9562","0.0-1.0-30.0","false","a,l","a","200","true","200","1","180","0.5","2","-1","1","600","400","white","gray","3","2","2","18.218181818181787","[17.299999999999272,16.200000000000728,16.799999999999272,16.700000000000728,16.69999999999891,35.70000000000073,13.899999999999636,17.00000000000182,16.69999999999891,16.700000000000728,16.69999999999891]","11"
"-1","-1","RDK","32","9778","0.0-1.0-31.0","false","a,l","a","200","true","200","1","180","0.5","2","-1","1","600","400","white","gray","3","2","2","18.218181818181787","[17.5,39,10.399999999999636,16.69999999999891,16.80000000000109,16.599999999998545,16.700000000000728,16.600000000000364,16.700000000000728,16.69999999999891,16.700000000000728]","11"
"-1","-1","RDK","33","9992","0.0-1.0-32.0","false","a,l","l","200","true","200","1","0","0.5","2","-1","1","600","400","white","gray","3","2","2","16.681818181818183","[18.80000000000109,15.5,16.600000000000364,16.69999999999891,15.800000000001091,17.5,16.799999999999272,16.600000000000364,16.69999999999891,16.799999999999272,15.700000000000728]","11"
"-1","-1","RDK","34","10195","0.0-1.0-33.0","false","a,l","l","200","true","200","1","0","0.5","2","-1","1","600","400","white","gray","3","2","2","16.658333333333456","[16.69999999999891,16.400000000001455,16.799999999999272,16.600000000002183,16.599999999998545,16.799999999999272,16.600000000000364,31.100000000000364,2.599999999998545,15.600000000002183,17.399999999999636,16.700000000000728]","12"
"-1","-1","RDK","35","10412","0.0-1.0-34.0","false","a,l","a","200","true","200","1","180","0.5","2","-1","1","600","400","white","gray","3","2","2","18.21818181818195","[17.200000000000728,16.599999999998545,46.80000000000109,2.6999999999989086,16.80000000000109,16.100000000002183,17.399999999997817,16.700000000000728,16.69999999999891,16.50000000000182,16.899999999999636]","11"
"-1","-1","RDK","36","10630","0.0-1.0-35.0","false","a,l","l","200","true","200","1","0","0.5","2","-1","1","600","400","white","gray","3","2","2","18.218181818181787","[17.80000000000109,15.100000000000364,17.5,16.49999999999818,35.400000000001455,13.699999999998909,17.700000000000728,16.600000000000364,16.700000000000728,15.799999999997453,17.600000000000364]","11"
"-1","-1","RDK","37","10846","0.0-1.0-36.0","false","a,l","a","200","true","200","1","180","0.5","2","-1","1","600","400","white","gray","3","2","2","16.683333333333394","[21.5,26.200000000000728,1.5,17,17.30000000000109,16.69999999999709,16.200000000002547,17.19999999999891,16.5,16.399999999999636,17.00000000000182,16.69999999999891]","12"
"-1","-1","RDK","38","11062","0.0-1.0-37.0","false","a,l","l","200","true","200","1","0","0.5","2","-1","1","600","400","white","gray","3","2","2","16.691666666666606","[17.299999999999272,16.299999999999272,16.50000000000182,20.599999999998545,12.800000000001091,16.799999999999272,16.600000000000364,16.700000000000728,16.599999999998545,16.700000000000728,16.69999999999891,16.700000000000728]","12"
"-1","-1","RDK","39","11278","0.0-1.0-38.0","false","a,l","a","200","true","200","1","180","0.5","2","-1","1","600","400","white","gray","3","2","2","16.683333333333092","[17.299999999997453,16.200000000002547,16.49999999999818,16.799999999999272,16.600000000000364,31.30000000000109,2.600000000000364,16,16.899999999999636,16.600000000000364,16.700000000000728,16.69999999999709]","12"
"-1","-1","RDK","40","11496","0.0-1.0-39.0","false","a,l","a","200","true","200","1","180","0.5","2","-1","1","600","400","white","gray","3","2","2","16.691666666666606","[22.19999999999891,25.30000000000109,2.2999999999992724,16.900000000001455,16.899999999999636,16.49999999999818,16.80000000000109,16.600000000000364,16.600000000000364,16.600000000000364,16.799999999999272,16.799999999999272]","12"
"-1","-1","RDK","41","11714","0.0-1.0-40.0","false","a,l","a","200","true","200","1","180","0.5","2","-1","1","600","400","white","gray","3","2","2","18.21818181818195","[17.30000000000109,16.399999999999636,16.600000000000364,44.19999999999891,5.600000000002183,16.799999999999272,16.80000000000109,16.599999999998545,16.69999999999891,16.700000000000728,16.700000000000728]","11"
"-1","-1","RDK","42","11928","0.0-1.0-41.0","false","a,l","a","200","true","200","1","180","0.5","2","-1","1","600","400","white","gray","3","2","2","18.163636363636463","[16.69999999999891,16.30000000000109,16.700000000000728,16.69999999999891,16.700000000000728,32.69999999999891,16.30000000000109,17.600000000000364,16.600000000000364,16.799999999999272,16.700000000000728]","11"
"-1","-1","RDK","43","12146","0.0-1.0-42.0","false","a,l","a","200","true","200","1","180","0.5","2","-1","1","600","400","white","gray","3","2","2","18.209090909090843","[24.200000000000728,25.899999999999636,16.799999999999272,16.700000000000728,16.49999999999818,16.900000000001455,16.599999999998545,16.600000000000364,16.80000000000109,16.399999999999636,16.899999999999636]","11"
"-1","-1","RDK","44","12361","0.0-1.0-43.0","false","a,l","a","200","true","200","1","180","0.5","2","-1","1","600","400","white","gray","3","2","2","16.666666666666817","[17.80000000000109,15.799999999999272,16.600000000000364,16.899999999999636,23.100000000000364,10.199999999998909,16.600000000000364,16.700000000000728,16.700000000000728,16.700000000000728,16,16.899999999999636]","12"
"-1","-1","RDK","45","12577","0.0-1.0-44.0","false","a,l","a","200","true","200","1","180","0.5","2","-1","1","600","400","white","gray","3","2","2","16.74545454545461","[21,25.900000000001455,4.199999999998909,16.299999999999272,16.799999999999272,16.600000000000364,16.700000000000728,16.69999999999891,16.80000000000109,16.600000000000364,16.600000000000364]","11"
"-1","-1","RDK","46","12778","0.0-1.0-45.0","false","a,l","a","200","true","200","1","180","0.5","2","-1","1","600","400","white","gray","3","2","2","18.10909090909081","[16.099999999998545,16.200000000000728,16.799999999999272,16.700000000000728,16.600000000000364,16.69999999999891,32.29999999999927,17.600000000000364,16.700000000000728,16.399999999999636,17.100000000000364]","11"
"-1","-1","RDK","47","12996","0.0-1.0-46.0","false","a,l","l","200","true","200","1","0","0.5","2","-1","1","600","400","white","gray","3","2","2","18.21818181818162","[27.69999999999891,27.200000000000728,11.999999999998181,16.80000000000109,16.600000000000364,16.799999999999272,16.600000000000364,16.700000000000728,16.399999999997817,16.900000000001455,16.69999999999891]","11"
"-1","-1","RDK","48","13212","0.0-1.0-47.0","false","a,l","a","200","true","200","1","180","0.5","2","-1","1","600","400","white","gray","3","2","2","16.683333333333394","[18.200000000000728,15.300000000001091,16.600000000000364,16.69999999999891,16.5,17,15.600000000000364,17.599999999998545,16.700000000000728,16.600000000000364,16.799999999999272,16.600000000000364]","12"
"-1","-1","RDK","49","13432","0.0-1.0-48.0","false","a,l","l","200","true","200","1","0","0.5","2","-1","1","600","400","white","gray","3","2","2","18.209090909090843","[17.299999999999272,16.200000000000728,16.69999999999891,16.700000000000728,16.700000000000728,16.5,36.899999999999636,12.500000000001819,17.399999999997817,16.700000000000728,16.69999999999891]","11"
"-1","-1","RDK","50","13643","0.0-1.0-49.0","false","a,l","a","200","true","200","1","180","0.5","2","-1","1","600","400","white","gray","3","2","2","18.459999999999855","[18.19999999999891,15.900000000001455,36.20000000000073,14.099999999998545,16.80000000000109,16.899999999999636,16.5,16.799999999999272,16.600000000000364,16.599999999998545]","10"
"-1","-1","RDK","51","13847","0.0-1.0-50.0","false","a,l","l","200","true","200","1","0","0.5","2","-1","1","600","400","white","gray","3","2","2","18.17272727272724","[17.299999999999272,16,16.5,16.600000000000364,36.899999999999636,12.299999999999272,17.5,16.80000000000109,16.69999999999891,16.600000000000364,16.700000000000728]","11"
"-1","-1","RDK","52","14064","0.0-1.0-51.0","false","a,l","l","200","true","200","1","0","0.5","2","-1","1","600","400","white","gray","3","2","2","16.691666666666453","[17.599999999998545,25.30000000000109,7.099999999998545,16.899999999999636,16.700000000000728,16.69999999999891,16.700000000000728,16.600000000000364,16.700000000000728,15.799999999999272,17.5,16.69999999999891]","12"
"-1","-1","RDK","53","14282","0.0-1.0-52.0","false","a,l","l","200","true","200","1","0","0.5","2","-1","1","600","400","white","gray","3","2","2","18.200000000000067","[17.19999999999891,16.5,16.50000000000182,40.49999999999818,8.799999999999272,16.80000000000109,17.399999999999636,16.700000000000728,16.69999999999891,16.600000000000364,16.50000000000182]","11"
"-1","-1","RDK","54","14496","0.0-1.0-53.0","false","a,l","l","200","true","200","1","0","0.5","2","-1","1","600","400","white","gray","3","2","2","16.641666666666726","[16.700000000000728,16.299999999999272,16.700000000000728,16.799999999999272,16.600000000000364,16.600000000000364,19.399999999999636,13.099999999998545,17.600000000002183,16.69999999999891,16.600000000000364,16.600000000000364]","12"
"-1","-1","RDK","55","14714","0.0-1.0-54.0","false","a,l","a","200","true","200","1","180","0.5","2","-1","1","600","400","white","gray","3","2","2","18.209090909090843","[24.399999999999636,38.29999999999927,4.200000000000728,16.69999999999891,16.700000000000728,16.69999999999891,16.600000000000364,16.700000000000728,16.600000000000364,16.799999999999272,16.600000000000364]","11"
"-1","-1","RDK","56","14932","0.0-1.0-55.0","false","a,l","l","200","true","200","1","0","0.5","2","-1","1","600","400","white","gray","3","2","2","16.666666666666668","[18.399999999999636,15.399999999999636,16.600000000002183,16.600000000000364,24.49999999999818,8.700000000000728,16.799999999999272,16.700000000000728,16.69999999999891,16.700000000000728,16,16.899999999999636]","12"
"-1","-1","RDK","57","15147","0.0-1.0-56.0","false","a,l","a","200","true","200","1","180","0.5","2","-1","1","600","400","white","gray","3","2","2","16.70000000000012","[17.400000000001455,16.099999999998545,16.80000000000109,16.69999999999891,16.700000000000728,16.600000000000364,22.600000000000364,10.100000000000364,17.19999999999891,16.80000000000109,16.599999999998545,16.80000000000109]","12"
"-1","-1","RDK","58","15364","0.0-1.0-57.0","false","a,l","l","200","true","200","1","0","0.5","2","-1","1","600","400","white","gray","3","2","2","20.039999999999964","[17.399999999999636,51.69999999999891,14.600000000000364,16.599999999998545,16.700000000000728,16.700000000000728,16.600000000000364,16.700000000000728,16.299999999999272,17.100000000000364]","10"
"-1","-1","RDK","59","15579","0.0-1.0-58.0","false","a,l","l","200","true","200","1","0","0.5","2","-1","1","600","400","white","gray","3","2","2","16.683333333333394","[17.299999999999272,16.299999999999272,16.80000000000109,16.600000000000364,24.299999999999272,9,16.600000000000364,16.69999999999891,16.600000000000364,16.80000000000109,16.69999999999891,16.50000000000182]","12"
"-1","-1","RDK","60","15795","0.0-1.0-59.0","false","a,l","l","200","true","200","1","0","0.5","2","-1","1","600","400","white","gray","3","2","2","16.708333333333332","[17.80000000000109,24.099999999998545,8.400000000001455,16.799999999999272,16.700000000000728,16.69999999999891,16.600000000000364,16.700000000000728,16.600000000000364,16.599999999998545,16.80000000000109,16.69999999999891]","12"
"-1","-1","RDK","61","16014","0.0-1.0-60.0","false","a,l","l","200","true","200","1","0","0.5","2","-1","1","600","400","white","gray","3","2","2","18.209090909090676","[17.099999999998545,16.50000000000182,16.600000000000364,33.20000000000073,15.899999999997817,17.600000000002183,16.69999999999891,16.700000000000728,16.700000000000728,16.69999999999527,16.600000000000364]","11"
"-1","-1","RDK","62","16230","0.0-1.0-61.0","false","a,l","l","200","true","200","1","0","0.5","2","-1","1","600","400","white","gray","3","2","2","18.209090909091174","[17.400000000003274,16.19999999999709,16.600000000000364,16.799999999999272,37.70000000000073,12.200000000000728,16.700000000000728,16.69999999999891,16.700000000000728,15.799999999999272,17.50000000000182]","11"
"-1","-1","RDK","63","16447","0.0-1.0-62.0","false","a,l","l","200","true","200","1","0","0.5","2","-1","1","600","400","white","gray","3","2","2","16.700000000000273","[17.200000000002547,24.799999999999272,8.299999999999272,16.700000000000728,16.700000000000728,16.69999999999709,16.600000000002183,16.700000000000728,16.599999999998545,16.700000000000728,16.799999999999272,16.600000000002183]","12"
"-1","-1","RDK","64","16661","0.0-1.0-63.0","false","a,l","a","200","true","200","1","180","0.5","2","-1","1","600","400","white","gray","3","2","2","16.772727272727273","[19,15.399999999997817,16.80000000000291,20.599999999998545,12.000000000003638,17.499999999996362,16.700000000000728,16.200000000000728,17.099999999998545,16.700000000000728,16.5]","11"
"-1","-1","RDK","65","16864","0.0-1.0-64.0","false","a,l","l","200","true","200","1","0","0.5","2","-1","1","600","400","white","gray","3","2","2","16.633333333333514","[16.400000000001455,16.5,16.600000000002183,16.700000000000728,16.599999999998545,16.799999999999272,16.599999999998545,21.400000000001455,11,17.69999999999709,16.600000000002183,16.700000000000728]","12"
"-1","-1","RDK","66","17078","0.0-1.0-65.0","false","a,l","l","200","true","200","1","0","0.5","2","-1","1","600","400","white","gray","3","2","2","18.279999999999927","[17.599999999998545,16.100000000002183,35.599999999998545,14.5,16.700000000000728,16.700000000000728,16.700000000000728,16.599999999998545,16.69999999999709,15.600000000002183]","10"
"-1","-1","RDK","67","17281","0.0-1.0-66.0","false","a,l","a","200","true","200","1","180","0.5","2","-1","1","600","400","white","gray","3","2","2","16.649999999999938","[16.69999999999709,16.5,16.600000000002183,16.599999999998545,16.700000000000728,22.799999999999272,10.500000000003638,21.799999999995634,11.500000000003638,16.799999999999272,16.600000000002183,16.69999999999709]","12"
"-1","-1","RDK","68","17497","0.0-1.0-67.0","false","a,l","a","200","true","200","1","180","0.5","2","-1","1","600","400","white","gray","3","2","2","18.209090909091174","[19.799999999999272,31.400000000001455,15.600000000002183,16.799999999999272,16.700000000000728,16.700000000000728,16.599999999998545,16.700000000000728,16.599999999998545,16.80000000000291,16.599999999998545]","11"
"-1","-1","RDK","69","17712","0.0-1.0-68.0","false","a,l","a","200","true","200","1","180","0.5","2","-1","1","600","400","white","gray","3","2","2","16.790909090908826","[18.399999999997817,16.30000000000291,16.499999999996362,16.700000000000728,15.600000000002183,17.799999999995634,16.700000000000728,16.700000000000728,16.30000000000291,16.999999999996362,16.700000000000728]","11"
"-1","-1","RDK","70","17916","0.0-1.0-69.0","false","a,l","a","200","true","200","1","180","0.5","2","-1","1","600","400","white","gray","3","2","2","18.02727272727266","[15.299999999999272,16.200000000000728,16.799999999999272,16.700000000000728,16.600000000002183,16.69999999999709,16.599999999998545,37.5,12.5,16.600000000002183,16.799999999999272]","11"
"-1","-1","RDK","71","18133","0.0-1.0-70.0","false","a,l","a","200","true","200","1","180","0.5","2","-1","1","600","400","white","gray","3","2","2","18.21818181818162","[17.399999999997817,15.600000000002183,48,2.5,16.700000000000728,16.799999999999272,16.700000000000728,16.700000000000728,16.599999999998545,16.69999999999709,16.700000000000728]","11"
"-1","-1","RDK","72","18347","0.0-1.0-71.0","false","a,l","l","200","true","200","1","0","0.5","2","-1","1","600","400","white","gray","3","2","2","18.209090909090843","[17.099999999998545,16.5,16.700000000000728,16.599999999998545,36.00000000000364,13.899999999997817,16.700000000000728,16.799999999999272,16.600000000002183,16.700000000000728,16.69999999999709]","11"
"-1","-1","RDK","73","18565","0.0-1.0-72.0","false","a,l","l","200","true","200","1","0","0.5","2","-1","1","600","400","white","gray","3","2","2","16.70000000000012","[24.200000000000728,15,11,16.799999999999272,16.600000000002183,16.700000000000728,16.5,16.899999999997817,16.700000000000728,16.700000000000728,16.600000000002183,16.69999999999709]","12"
"-1","-1","RDK","74","18781","0.0-1.0-73.0","false","a,l","a","200","true","200","1","180","0.5","2","-1","1","600","400","white","gray","3","2","2","16.683333333333394","[18.19999999999709,15.200000000000728,16.799999999999272,16.600000000002183,16.799999999999272,16.599999999998545,16.700000000000728,16.799999999999272,16.30000000000291,15.999999999996362,17.600000000002183,16.600000000002183]","12"
"-1","-1","RDK","75","18999","0.0-1.0-74.0","false","a,l","a","200","true","200","1","180","0.5","2","-1","1","600","400","white","gray","3","2","2","18.118181818182084","[16.100000000002183,16.30000000000291,16.899999999997817,16.700000000000728,16.599999999998545,36.900000000001455,12.999999999996362,16.80000000000291,16.69999999999709,16.600000000002183,16.700000000000728]","11"
"-1","-1","RDK","76","19214","0.0-1.0-75.0","false","a,l","l","200","true","200","1","0","0.5","2","-1","1","600","400","white","gray","3","2","2","18.209090909091174","[17.80000000000291,47,2.499999999996362,17.30000000000291,16.700000000000728,16.700000000000728,16.700000000000728,16.700000000000728,16.599999999994907,16.700000000000728,15.600000000002183]","11"
"-1","-1","RDK","77","19431","0.0-1.0-76.0","false","a,l","l","200","true","200","1","0","0.5","2","-1","1","600","400","white","gray","3","2","2","16.699999999999818","[17.299999999999272,16.30000000000291,16.69999999999709,16.700000000000728,23.200000000000728,9.80000000000291,16.999999999996362,16.700000000000728,16.700000000000728,16.700000000000728,16.600000000002183,16.69999999999345]","12"
"-1","-1","RDK","78","19648","0.0-1.0-77.0","false","a,l","a","200","true","200","1","180","0.5","2","-1","1","600","400","white","gray","3","2","2","18.209090909091174","[17.30000000000291,16.399999999997817,16.5,16.799999999999272,16.600000000002183,35.900000000001455,13.299999999995634,17.500000000003638,16.700000000000728,16.69999999999709,16.600000000002183]","11"
"-1","-1","RDK","79","19863","0.0-1.0-78.0","false","a,l","l","200","true","200","1","0","0.5","2","-1","1","600","400","white","gray","3","2","2","18.209090909091174","[18,40,8.900000000001455,16.799999999999272,16.700000000000728,16.599999999998545,16.700000000000728,16.599999999998545,16.80000000000291,20.600000000002183,12.599999999998545]","11"
"-1","-1","RDK","80","20082","0.0-1.0-79.0","false","a,l","l","200","true","200","1","0","0.5","2","-1","1","600","400","white","gray","3","2","2","16.691666666666606","[17.299999999999272,16.200000000000728,16.799999999999272,17.599999999998545,25.700000000000728,6.599999999998545,16.5,16.900000000001455,16.599999999998545,16.799999999999272,16.600000000002183,16.700000000000728]","12"
"-1","-1","RDK","81","20298","0.0-1.0-80.0","false","a,l","a","200","true","200","1","180","0.5","2","-1","1","600","400","white","gray","3","2","2","18.21818181818195","[21.400000000001455,39.79999999999927,5.299999999999272,17.30000000000291,16.5,16.700000000000728,16.700000000000728,16.69999999999345,16.600000000002183,16.700000000000728,16.700000000000728]","11"
"-1","-1","RDK","82","20515","0.0-1.0-81.0","false","a,l","l","200","true","200","1","0","0.5","2","-1","1","600","400","white","gray","3","2","2","16.641666666666726","[16,16.100000000002183,17.5,16.700000000000728,16.599999999998545,16,17.400000000001455,16.700000000000728,16.69999999999709,16.500000000003638,16.799999999999272,16.69999999999709]","12"
"-1","-1","RDK","83","20730","0.0-1.0-82.0","false","a,l","a","200","true","200","1","180","0.5","2","-1","1","600","400","white","gray","3","2","2","16.70000000000012","[17.900000000001455,15.69999999999709,16.700000000000728,16.700000000000728,16.700000000000728,23.299999999999272,9.099999999998545,17.600000000002183,16.600000000002183,16.799999999999272,16.599999999998545,16.700000000000728]","12"
"-1","-1","RDK","84","20950","0.0-1.0-83.0","false","a,l","l","200","true","200","1","0","0.5","2","-1","1","600","400","white","gray","3","2","2","18.21818181818195","[17.200000000000728,16.099999999998545,38.400000000001455,11.899999999997817,16.799999999999272,16.700000000000728,16.500000000003638,16.799999999999272,16.700000000000728,16.599999999998545,16.700000000000728]","11"
"-1","-1","RDK","85","21165","0.0-1.0-84.0","false","a,l","l","200","true","200","1","0","0.5","2","-1","1","600","400","white","gray","3","2","2","18.209090909090843","[17.19999999999709,16.30000000000291,16.69999999999709,16.80000000000291,34.19999999999709,15.799999999999272,16.700000000000728,16.599999999998545,16.700000000000728,16.700000000000728,16.600000000002183]","11"
"-1","-1","RDK","86","21380","0.0-1.0-85.0","false","a,l","l","200","true","200","1","0","0.5","2","-1","1","600","400","white","gray","3","2","2","16.708333333333332","[19.399999999997817,26.700000000000728,4.400000000001455,16.599999999998545,16.700000000000728,16.700000000000728,16.599999999998545,16.69999999999709,16.600000000002183,16.599999999998545,16.700000000000728,16.80000000000291]","12"
"-1","-1","RDK","87","21598","0.0-1.0-86.0","false","a,l","a","200","true","200","1","180","0.5","2","-1","1","600","400","white","gray","3","2","2","16.699999999999818","[17.700000000004366,15.899999999997817,15.69999999999709,24.299999999999272,9.400000000001455,17.200000000000728,16.700000000000728,16.700000000000728,16.700000000000728,16.69999999999709,16.700000000000728,16.69999999999709]","12"
"-1","-1","RDK","88","21815","0.0-1.0-87.0","false","a,l","a","200","true","200","1","180","0.5","2","-1","1","600","400","white","gray","3","2","2","16.691666666666908","[17.200000000000728,16.299999999999272,16.700000000000728,16.700000000000728,16.600000000002183,23.399999999997817,9.099999999998545,22.200000000000728,12.000000000003638,16.69999999999709,16.700000000000728,16.700000000000728]","12"
"-1","-1","RDK","89","22033","0.0-1.0-88.0","false","a,l","a","200","true","200","1","180","0.5","2","-1","1","600","400","white","gray","3","2","2","18.172727272727403","[17.099999999998545,35.5,13.799999999999272,16.700000000000728,16.799999999999272,16.600000000002183,16.700000000000728,16.299999999999272,16.600000000002183,17.19999999999709,16.600000000002183]","11"
"-1","-1","RDK","90","22249","0.0-1.0-89.0","false","a,l","a","200","true","200","1","180","0.5","2","-1","1","600","400","white","gray","3","2","2","16.691666666666606","[17.299999999999272,16.099999999998545,16.799999999999272,16.700000000000728,15.700000000004366,17.69999999999709,16.600000000002183,16.69999999999709,16.700000000000728,16.700000000000728,16.700000000000728,16.599999999998545]","12"
"-1","-1","RDK","91","22463","0.0-1.0-90.0","false","a,l","a","200","true","200","1","180","0.5","2","-1","1","600","400","white","gray","3","2","2","16.736363636363834","[18.099999999998545,16.000000000003638,16.599999999998545,16.700000000000728,16.700000000000728,16.599999999998545,30.099999999998545,2.500000000003638,17.099999999998545,17.099999999998545,16.600000000002183]","11"
"-1","-1","RDK","92","22665","0.0-1.0-91.0","false","a,l","a","200","true","200","1","180","0.5","2","-1","1","600","400","white","gray","3","2","2","18.09090909090942","[17.200000000004366,15.199999999993452,46.10000000000582,3.7999999999956344,16.900000000001455,17.200000000000728,16.700000000000728,16.700000000000728,16.69999999999709,16.599999999998545,15.900000000005093]","11"
"-1","-1","RDK","93","22881","0.0-1.0-92.0","false","a,l","a","200","true","200","1","180","0.5","2","-1","1","600","400","white","gray","3","2","2","18.209090909090843","[17.099999999998545,16.400000000001455,16.799999999999272,15.799999999999272,35.80000000000291,15,16.700000000000728,16.799999999999272,16.599999999998545,16.700000000000728,16.599999999998545]","11"
"-1","-1","RDK","94","23099","0.0-1.0-93.0","false","a,l","l","200","true","200","1","0","0.5","2","-1","1","600","400","white","gray","3","2","2","16.70000000000012","[22.799999999999272,15.200000000000728,12.200000000000728,16.799999999999272,15.80000000000291,17.499999999996362,16.700000000000728,16.600000000002183,16.700000000000728,16.099999999994907,17.30000000000291,16.700000000000728]","12"
"-1","-1","RDK","95","23316","0.0-1.0-94.0","false","a,l","l","200","true","200","1","0","0.5","2","-1","1","600","400","white","gray","3","2","2","16.683333333333092","[17,16.499999999996362,16.600000000002183,16.69999999999709,16.80000000000291,16.599999999998545,16.700000000000728,16.700000000000728,16.599999999998545,16.700000000000728,16.700000000000728,16.599999999998545]","12"
"-1","-1","RDK","96","23530","0.0-1.0-95.0","false","a,l","l","200","true","200","1","0","0.5","2","-1","1","600","400","white","gray","3","2","2","18.460000000000218","[19.200000000000728,15.400000000001455,16.600000000002183,16.69999999999709,16.700000000000728,36,13.899999999997817,16.799999999999272,16.600000000002183,16.700000000000728]","10"
"-1","-1","RDK","97","23733","0.0-1.0-96.0","false","a,l","l","200","true","200","1","0","0.5","2","-1","1","600","400","white","gray","3","2","2","19.93999999999978","[16.19999999999709,16.100000000002183,50,17,16.700000000000728,16.700000000000728,16.599999999994907,16.700000000000728,16.700000000000728,16.700000000000728]","10"
"-1","-1","RDK","98","23949","0.0-1.0-97.0","false","a,l","l","200","true","200","1","0","0.5","2","-1","1","600","400","white","gray","3","2","2","18.209090909090843","[17.200000000000728,16.400000000001455,16.299999999999272,17,36.10000000000218,13.799999999999272,16.799999999999272,16.700000000000728,16.700000000000728,16.599999999998545,16.69999999999709]","11"
"-1","-1","RDK","99","24166","0.0-1.0-98.0","false","a,l","l","200","true","200","1","0","0.5","2","-1","1","600","400","white","gray","3","2","2","16.683333333333696","[17.099999999998545,23.80000000000291,9,17,16.700000000000728,16.69999999999709,16.700000000000728,16.700000000000728,16.700000000000728,16.600000000002183,16.69999999999709,16.500000000003638]","12"
"-1","-1","RDK","100","24381","0.0-1.0-99.0","false","a,l","a","200","true","200","1","180","0.5","2","-1","1","600","400","white","gray","3","2","2","16.641666666666726","[18.299999999999272,15.200000000000728,16.700000000000728,16.5,17,16.599999999998545,16.700000000000728,16.700000000000728,16.700000000000728,16.69999999999709,16.600000000002183,16]","12"
"-1","-1","RDK","101","24601","0.0-1.0-100.0","false","a,l","a","200","true","200","1","180","0.5","2","-1","1","600","400","white","gray","3","2","2","18.209090909090513","[17.19999999999709,16.400000000001455,16.600000000002183,16.69999999999709,16.69999999999709,48.60000000000218,2.100000000002183,15.200000000000728,17.399999999997817,16.799999999999272,16.599999999998545]","11"
"-1","-1","RDK","102","24817","0.0-1.0-101.0","false","a,l","l","200","true","200","1","0","0.5","2","-1","1","600","400","white","gray","3","2","2","18.199999999999736","[21.799999999999272,37.10000000000218,7.799999999999272,16.700000000000728,16.700000000000728,16.700000000000728,16.69999999999709,16.69999999999709,16.100000000002183,17.099999999998545,16.799999999999272]","11"
"-1","-1","RDK","103","25033","0.0-1.0-102.0","false","a,l","a","200","true","200","1","180","0.5","2","-1","1","600","400","white","gray","3","2","2","16.699999999999818","[17.399999999997817,16.100000000002183,16.799999999999272,16.600000000002183,19.400000000001455,13.69999999999709,17,16.700000000000728,16.700000000000728,16.700000000000728,16.599999999994907,16.700000000000728]","12"
"-1","-1","RDK","104","25250","0.0-1.0-103.0","false","a,l","a","200","true","200","1","180","0.5","2","-1","1","600","400","white","gray","3","2","2","18.21818181818195","[17.700000000000728,15.799999999999272,16.599999999998545,16.900000000001455,16.600000000002183,37.099999999998545,11.899999999997817,17.600000000002183,16.799999999999272,15.700000000000728,17.700000000000728]","11"
"-1","-1","RDK","105","25464","0.0-1.0-104.0","false","a,l","l","200","true","200","1","0","0.5","2","-1","1","600","400","white","gray","3","2","2","18.399999999999636","[28.19999999999709,27,12,17.399999999997817,16.600000000002183,16.700000000000728,16.700000000000728,16.700000000000728,16.599999999998545,16.099999999998545]","10"
"-1","-1","RDK","106","25667","0.0-1.0-105.0","false","a,l","l","200","true","200","1","0","0.5","2","-1","1","600","400","white","gray","3","2","2","16.608333333333576","[16.700000000000728,15.900000000001455,16.600000000002183,16.799999999999272,16.700000000000728,23.19999999999709,10,16.69999999999709,16.700000000000728,16.700000000000728,16.700000000000728,16.600000000002183]","12"
"-1","-1","RDK","107","25881","0.0-1.0-106.0","false","a,l","l","200","true","200","1","0","0.5","2","-1","1","600","400","white","gray","3","2","2","18.470000000000073","[20.700000000000728,38,9,17.100000000002183,16.5,16.799999999999272,16.700000000000728,16.599999999994907,16.700000000000728,16.600000000002183]","10"
"-1","-1","RDK","108","26083","0.0-1.0-107.0","false","a,l","l","200","true","200","1","0","0.5","2","-1","1","600","400","white","gray","3","2","2","18.15454545454552","[16.700000000000728,16.299999999999272,16.700000000000728,16.600000000002183,43.79999999999927,6.099999999998545,16.600000000002183,16.899999999997817,16.399999999997817,16.900000000005093,16.69999999999709]","11"
"-1","-1","RDK","109","26299","0.0-1.0-108.0","false","a,l","a","200","true","200","1","180","0.5","2","-1","1","600","400","white","gray","3","2","2","16.71666666666685","[17.900000000001455,15.69999999999709,16.799999999999272,16.700000000000728,16.700000000000728,16.700000000000728,16.700000000000728,16.700000000000728,16.599999999998545,16.600000000002183,16.799999999999272,16.700000000000728]","12"
"-1","-1","RDK","110","26517","0.0-1.0-109.0","false","a,l","l","200","true","200","1","0","0.5","2","-1","1","600","400","white","gray","3","2","2","18.209090909091174","[17.200000000004366,16.399999999997817,34.10000000000218,15.899999999997817,16.700000000000728,16.69999999999709,16.700000000000728,16.700000000000728,16.600000000002183,16.599999999998545,16.700000000000728]","11"
"-1","-1","RDK","111","26734","0.0-1.0-110.0","false","a,l","a","200","true","200","1","180","0.5","2","-1","1","600","400","white","gray","3","2","2","18.209090909090843","[17.299999999999272,16.200000000000728,16.700000000000728,16.700000000000728,34.599999999998545,15.399999999997817,16.700000000000728,16.700000000000728,16.700000000000728,16.5,16.799999999999272]","11"
"-1","-1","RDK","112","26948","0.0-1.0-111.0","false","a,l","a","200","true","200","1","180","0.5","2","-1","1","600","400","white","gray","3","2","2","16.708333333333332","[21.30000000000291,25.599999999994907,2.400000000001455,17.700000000000728,16.700000000000728,16.700000000000728,16.700000000000728,16.499999999996362,16.700000000000728,16.700000000000728,16.700000000000728,16.799999999999272]","12"
"-1","-1","RDK","113","27167","0.0-1.0-112.0","false","a,l","l","200","true","200","1","0","0.5","2","-1","1","600","400","white","gray","3","2","2","16.708333333333332","[17.700000000004366,15.999999999996362,16.400000000001455,24.799999999999272,8.700000000000728,16.599999999998545,16.80000000000291,16.69999999999709,16.700000000000728,16.600000000002183,16.69999999999709,16.799999999999272]","12"
"-1","-1","RDK","114","27384","0.0-1.0-113.0","false","a,l","l","200","true","200","1","0","0.5","2","-1","1","600","400","white","gray","3","2","2","16.683333333333696","[17.30000000000291,15.700000000000728,17.19999999999709,16.700000000000728,16.700000000000728,26.399999999997817,6.100000000002183,19.799999999999272,13.700000000000728,17.400000000001455,16.599999999998545,16.600000000002183]","12"
"-1","-1","RDK","115","27600","0.0-1.0-114.0","false","a,l","a","200","true","200","1","180","0.5","2","-1","1","600","400","white","gray","3","2","2","18.227272727272727","[18.099999999998545,33.400000000001455,15.5,16.700000000000728,16.69999999999709,16.700000000000728,16.700000000000728,16.700000000000728,16.599999999998545,18.200000000000728,15.200000000000728]","11"
"-1","-1","RDK","116","27817","0.0-1.0-115.0","false","a,l","a","200","true","200","1","180","0.5","2","-1","1","600","400","white","gray","3","2","2","16.691666666666606","[17.30000000000291,16.299999999999272,16.69999999999709,16.599999999998545,23.700000000004366,8.799999999999272,17.5,16.799999999999272,16.700000000000728,16.599999999998545,16.700000000000728,16.599999999998545]","12"
"-1","-1","RDK","117","28034","0.0-1.0-116.0","false","a,l","l","200","true","200","1","0","0.5","2","-1","1","600","400","white","gray","3","2","2","18.21818181818162","[25.299999999995634,26.100000000002183,15.5,16.700000000000728,16.799999999999272,16.599999999998545,16.700000000000728,16.5,16.799999999999272,16.700000000000728,16.700000000000728]","11"
"-1","-1","RDK","118","28254","0.0-1.0-117.0","false","a,l","l","200","true","200","1","0","0.5","2","-1","1","600","400","white","gray","3","2","2","16.65833333333315","[17.899999999997817,15.5,26.899999999997817,6.500000000003638,16.5,18.700000000000728,14.900000000001455,16.69999999999709,16.599999999998545,16.700000000000728,16.700000000000728,16.299999999999272]","12"
"-1","-1","RDK","119","28465","0.0-1.0-118.0","false","a,l","a","200","true","200","1","180","0.5","2","-1","1","600","400","white","gray","3","2","2","16.699999999999818","[17.399999999997817,15.299999999999272,17.700000000000728,16.600000000002183,17,30.799999999999272,2.400000000001455,16.400000000001455,16.700000000000728,16.69999999999709,16.700000000000728,16.69999999999709]","12"
"-1","-1","RDK","120","28685","0.0-1.0-119.0","false","a,l","a","200","true","200","1","180","0.5","2","-1","1","600","400","white","gray","3","2","2","18.209090909091174","[17.100000000002183,36.099999999998545,13.600000000002183,15.69999999999709,17.700000000000728,16.700000000000728,16.700000000000728,16.600000000002183,16.69999999999709,16.700000000000728,16.700000000000728]","11"
"-1","-1","RDK","121","28898","0.0-1.0-120.0","false","a,l","a","200","true","200","1","180","0.5","2","-1","1","600","400","white","gray","3","2","2","16.700000000000397","[17.500000000003638,16.19999999999709,16.700000000000728,16.599999999998545,15.80000000000291,17.69999999999709,16.600000000002183,16.700000000000728,16.700000000000728,16.599999999998545,16.600000000002183]","11"
"-1","-1","RDK","122","29101","0.0-1.0-121.0","false","a,l","l","200","true","200","1","0","0.5","2","-1","1","600","400","white","gray","3","2","2","16.658333333333456","[17.400000000001455,15.700000000000728,16.700000000000728,16.700000000000728,16.599999999998545,16.69999999999709,16.600000000002183,29.900000000001455,3.399999999997817,16.599999999998545,16.900000000001455,16.700000000000728]","12"
"-1","-1","RDK","123","29315","0.0-1.0-122.0","false","a,l","l","200","true","200","1","0","0.5","2","-1","1","600","400","white","gray","3","2","2","20.511111111111354","[18.100000000002183,16,61.20000000000073,5.900000000001455,16.599999999998545,16.69999999999709,16.700000000000728,16.700000000000728,16.700000000000728]","9"
"-1","-1","RDK","124","29518","0.0-1.0-123.0","false","a,l","a","200","true","200","1","180","0.5","2","-1","1","600","400","white","gray","3","2","2","18.15454545454552","[16.499999999996362,16,17.100000000002183,16.599999999998545,16.799999999999272,16.700000000000728,38.400000000001455,11.400000000001455,16.799999999999272,16.700000000000728,16.700000000000728]","11"
"-1","-1","RDK","125","29735","0.0-1.0-124.0","false","a,l","l","200","true","200","1","0","0.5","2","-1","1","600","400","white","gray","3","2","2","18.209090909091174","[17.900000000001455,15.599999999998545,32.50000000000364,16.799999999999272,17.400000000001455,16.799999999999272,16.599999999998545,16.700000000000728,16.700000000000728,16.099999999998545,17.200000000000728]","11"
"-1","-1","RDK","126","29951","0.0-1.0-125.0","false","a,l","a","200","true","200","1","180","0.5","2","-1","1","600","400","white","gray","3","2","2","18.209090909091174","[17.30000000000291,16.299999999999272,16.69999999999709,16.700000000000728,38.30000000000291,10.900000000001455,16.599999999998545,17.5,16.700000000000728,16.69999999999709,16.600000000002183]","11"
"-1","-1","RDK","127","30166","0.0-1.0-126.0","false","a,l","l","200","true","200","1","0","0.5","2","-1","1","600","400","white","gray","3","2","2","18.4","[22.899999999997817,26.700000000004366,17.700000000000728,16.700000000000728,16.599999999994907,16.799999999999272,16.600000000002183,16.700000000000728,16.599999999998545,16.700000000000728]","10"
"-1","-1","RDK","128","30368","0.0-1.0-127.0","false","a,l","l","200","true","200","1","0","0.5","2","-1","1","600","400","white","gray","3","2","2","16.649999999999938","[16.599999999998545,16.30000000000291,16.799999999999272,27.700000000000728,4.799999999999272,17.400000000001455,16.799999999999272,16.600000000002183,16.799999999999272,16.599999999994907,16.700000000000728,16.700000000000728]","12"
"-1","-1","RDK","129","30582","0.0-1.0-128.0","false","a,l","l","200","true","200","1","0","0.5","2","-1","1","600","400","white","gray","3","2","2","18.45","[19.200000000000728,15.400000000001455,16.700000000000728,16.599999999998545,16.799999999999272,36.400000000001455,13.5,15.799999999999272,17.500000000003638,16.599999999994907]","10"
"-1","-1","RDK","130","30784","0.0-1.0-129.0","false","a,l","a","200","true","200","1","180","0.5","2","-1","1","600","400","white","gray","3","2","2","16.633333333333212","[16.5,16.399999999997817,16.600000000002183,23.099999999998545,10.400000000001455,16.599999999998545,16.600000000002183,16.799999999999272,16.599999999998545,16.700000000000728,16.700000000000728,16.599999999998545]","12"
"-1","-1","RDK","131","31002","0.0-1.0-130.0","false","a,l","l","200","true","200","1","0","0.5","2","-1","1","600","400","white","gray","3","2","2","16.70000000000012","[17.30000000000291,16.19999999999709,16.900000000005093,16.599999999994907,15.60000000000582,17.69999999999709,21.299999999999272,12,16.799999999999272,16.700000000000728,16.700000000000728,16.599999999998545]","12"
"-1","-1","RDK","132","31218","0.0-1.0-131.0","false","a,l","l","200","true","200","1","0","0.5","2","-1","1","600","400","white","gray","3","2","2","18.209090909090843","[17.399999999997817,38.5,11.000000000003638,16.700000000000728,16.700000000000728,16.69999999999709,16.69999999999709,16.600000000002183,16.599999999998545,16.80000000000291,16.599999999998545]","11"
"-1","-1","RDK","133","31447","0.0-1.0-132.0","false","a,l","a","200","true","200","1","180","0.5","2","-1","1","600","400","white","gray","3","2","2","18.209090909090843","[17.19999999999709,16.30000000000291,16.799999999999272,44.599999999998545,4.400000000001455,17.600000000002183,16.599999999994907,16.900000000005093,16.700000000000728,16.499999999996362,16.700000000000728]","11"
"-1","-1","RDK","134","31649","0.0-1.0-133.0","false","a,l","a","200","true","200","1","180","0.5","2","-1","1","600","400","white","gray","3","2","2","18.459999999999855","[17,17.499999999996362,16.200000000000728,17.100000000002183,15.899999999997817,38,12.399999999997817,17.10000000000582,16.69999999999709,16.700000000000728]","10"
"-1","-1","RDK","135","31853","0.0-1.0-134.0","false","a,l","a","200","true","200","1","180","0.5","2","-1","1","600","400","white","gray","3","2","2","18.19090909090896","[17.399999999997817,15.200000000000728,35.69999999999709,14.200000000004366,17.399999999997817,16.700000000000728,16.700000000000728,16.700000000000728,16.599999999998545,16.700000000000728,16.799999999999272]","11"
"-1","-1","RDK","136","32070","0.0-1.0-135.0","false","a,l","a","200","true","200","1","180","0.5","2","-1","1","600","400","white","gray","3","2","2","18.21818181818162","[16.200000000000728,17.599999999998545,16.500000000003638,16.69999999999709,36.49999999999636,13.500000000003638,16.69999999999709,16.60000000000582,16.799999999995634,16.100000000002183,17.19999999999709]","11"
"-1","-1","RDK","137","32286","0.0-1.0-136.0","false","a,l","a","200","true","200","1","180","0.5","2","-1","1","600","400","white","gray","3","2","2","18.209090909091174","[23.000000000003638,25.700000000000728,18,16.799999999995634,16.700000000000728,16.700000000000728,16.69999999999709,16.60000000000582,16.700000000000728,16.700000000000728,16.69999999999709]","11"
"-1","-1","RDK","138","32503","0.0-1.0-137.0","false","a,l","a","200","true","200","1","180","0.5","2","-1","1","600","400","white","gray","3","2","2","18.200000000000067","[17.799999999999272,15.900000000001455,40,10.30000000000291,16.19999999999709,16.700000000000728,16.5,16.899999999997817,16.5,16.60000000000582,16.799999999995634]","11"
"-1","-1","RDK","139","32718","0.0-1.0-138.0","false","a,l","a","200","true","200","1","180","0.5","2","-1","1","600","400","white","gray","3","2","2","18.21818181818162","[17.39999999999418,16.30000000000291,15.599999999998545,17.600000000002183,34.39999999999782,15.599999999994907,16.800000000010186,16.69999999999709,16.599999999998545,16.599999999998545,16.80000000000291]","11"
"-1","-1","RDK","140","32933","0.0-1.0-139.0","false","a,l","a","200","true","200","1","180","0.5","2","-1","1","600","400","white","gray","3","2","2","16.772727272727273","[18.200000000004366,25.69999999999709,7.000000000007276,16.900000000001455,16.69999999999709,15.799999999995634,17.599999999998545,16.69999999999709,16.90000000000873,16.499999999992724,16.5]","11"
"-1","-1","RDK","141","33136","0.0-1.0-140.0","false","a,l","l","200","true","200","1","0","0.5","2","-1","1","600","400","white","gray","3","2","2","18.109090909090643","[15.099999999998545,17.400000000001455,16.5,16.69999999999709,34.60000000000582,14.69999999999709,17.5,16.30000000000291,17.099999999998545,16.69999999999709,16.599999999998545]","11"
"-1","-1","RDK","142","33352","0.0-1.0-141.0","false","a,l","l","200","true","200","1","0","0.5","2","-1","1","600","400","white","gray","3","2","2","16.70000000000012","[17.400000000001455,16.19999999999709,16.700000000004366,16.69999999999709,16.700000000004366,16.59999999999127,30.300000000010186,2.499999999992724,16.5,17.400000000001455,16.700000000004366,16.69999999999709]","12"
"-1","-1","RDK","143","33568","0.0-1.0-142.0","false","a,l","l","200","true","200","1","0","0.5","2","-1","1","600","400","white","gray","3","2","2","18.21818181818195","[27,37,2.3000000000029104,17.39999999999418,16.60000000000582,16.700000000004366,16.69999999999709,16.69999999999709,16.700000000004366,15.799999999995634,17.5]","11"
"-1","-1","RDK","144","33787","0.0-1.0-143.0","false","a,l","a","200","true","200","1","180","0.5","2","-1","1","600","400","white","gray","3","2","2","16.70000000000012","[17.30000000000291,15.69999999999709,17.30000000000291,15.80000000000291,28.5,10.099999999991269,11.80000000000291,17.200000000004366,16.59999999999127,16.700000000004366,16.69999999999709,16.700000000004366]","12"
"-1","-1","RDK","145","34002","0.0-1.0-144.0","false","a,l","l","200","true","200","1","0","0.5","2","-1","1","600","400","white","gray","3","2","2","16.70000000000012","[17.400000000001455,16.10000000000582,16.799999999995634,16.69999999999709,16.19999999999709,17.10000000000582,24.099999999998545,8.80000000000291,22.099999999998545,11.19999999999709,17.200000000004366,16.69999999999709]","12"
"-1","-1","RDK","146","34218","0.0-1.0-145.0","false","a,l","a","200","true","200","1","180","0.5","2","-1","1","600","400","white","gray","3","2","2","18.209090909090513","[17.400000000001455,16.19999999999709,16,40.000000000007276,10.099999999991269,17.30000000000291,16.599999999998545,16.80000000000291,16.599999999998545,16.69999999999709,16.599999999998545]","11"
"-1","-1","RDK","147","34434","0.0-1.0-146.0","false","a,l","a","200","true","200","1","180","0.5","2","-1","1","600","400","white","gray","3","2","2","16.70833333333394","[18.5,15.200000000004366,16.69999999999709,16.700000000004366,16.59999999999127,32.40000000000873,2.599999999998545,14.19999999999709,17.5,16.700000000004366,16.69999999999709,16.700000000004366]","12"
"-1","-1","RDK","148","34651","0.0-1.0-147.0","false","a,l","l","200","true","200","1","0","0.5","2","-1","1","600","400","white","gray","3","2","2","18.200000000000397","[25.700000000004366,38.69999999999709,2.400000000001455,16.69999999999709,16.799999999995634,16.60000000000582,16.69999999999709,16.700000000004366,16.599999999998545,16.69999999999709,16.60000000000582]","11"
"-1","-1","RDK","149","34869","0.0-1.0-148.0","false","a,l","a","200","true","200","1","180","0.5","2","-1","1","600","400","white","gray","3","2","2","16.691666666666908","[17.200000000004366,16.19999999999709,16.900000000001455,16.599999999998545,22.700000000004366,10.599999999991269,16.700000000004366,16.69999999999709,16.700000000004366,16.69999999999709,16.5,16.80000000000291]","12"
"-1","-1","RDK","150","35085","0.0-1.0-149.0","false","a,l","a","200","true","200","1","180","0.5","2","-1","1","600","400","white","gray","3","2","2","16.666666666666668","[18.19999999999709,15.500000000007276,16.59999999999127,16.700000000004366,16.69999999999709,16.599999999998545,21.400000000001455,11,17.5,16.900000000001455,16.599999999998545,16.30000000000291]","12"
"-1","-1","RDK","151","35301","0.0-1.0-150.0","false","a,l","l","200","true","200","1","0","0.5","2","-1","1","600","400","white","gray","3","2","2","18.21818181818129","[16.59999999999127,16.19999999999709,41.200000000004366,8.80000000000291,16.900000000001455,17.299999999995634,16.700000000004366,16.69999999999709,16.69999999999709,16.700000000004366,16.599999999998545]","11"
"-1","-1","RDK","152","35522","0.0-1.0-151.0","false","a,l","a","200","true","200","1","180","0.5","2","-1","1","600","400","white","gray","3","2","2","16.64166666666703","[17.19999999999709,16.200000000004366,16.599999999998545,16.69999999999709,16.700000000004366,16.60000000000582,16.69999999999709,16.69999999999709,16.700000000004366,16.69999999999709,16.700000000004366,16.19999999999709]","12"
"-1","-1","RDK","153","35737","0.0-1.0-152.0","false","a,l","a","200","true","200","1","180","0.5","2","-1","1","600","400","white","gray","3","2","2","18.209090909090513","[25.099999999998545,26.099999999998545,15.599999999998545,16.799999999995634,16.60000000000582,16.700000000004366,16.69999999999709,16.39999999999418,16.900000000001455,16.700000000004366,16.69999999999709]","11"
"-1","-1","RDK","154","35953","0.0-1.0-153.0","false","a,l","a","200","true","200","1","180","0.5","2","-1","1","600","400","white","gray","3","2","2","16.691666666667516","[17.200000000004366,16.19999999999709,26.700000000004366,6.80000000000291,16.299999999995634,18.60000000000582,15,16.799999999995634,16.69999999999709,16.700000000004366,16.69999999999709,16.60000000000582]","12"
"-1","-1","RDK","155","36169","0.0-1.0-154.0","false","a,l","l","200","true","200","1","0","0.5","2","-1","1","600","400","white","gray","3","2","2","16.70000000000012","[17.400000000001455,16.10000000000582,16.799999999995634,16.599999999998545,16.80000000000291,32.5,2.099999999998545,14.700000000004366,17.199999999989814,16.80000000000291,16.700000000004366,16.69999999999709]","12"
"-1","-1","RDK","156","36386","0.0-1.0-155.0","false","a,l","a","200","true","200","1","180","0.5","2","-1","1","600","400","white","gray","3","2","2","18.209090909090513","[18.30000000000291,35.999999999992724,12,17.30000000000291,16.700000000004366,16.599999999998545,16.69999999999709,16.799999999995634,16.5,16.700000000004366,16.69999999999709]","11"
"-1","-1","RDK","157","36603","0.0-1.0-156.0","false","a,l","l","200","true","200","1","0","0.5","2","-1","1","600","400","white","gray","3","2","2","16.67499999999988","[17.099999999998545,16.5,16.69999999999709,16.599999999998545,29.80000000000291,2.599999999998545,17.599999999998545,16.599999999998545,16.80000000000291,16.799999999995634,16.500000000007276,16.5]","12"
"-1","-1","RDK","158","36818","0.0-1.0-157.0","false","a,l","l","200","true","200","1","0","0.5","2","-1","1","600","400","white","gray","3","2","2","16.708333333332728","[17.299999999995634,16.400000000001455,16.80000000000291,16.59999999999127,16.700000000004366,16.5,30.10000000000582,2.599999999991269,17.30000000000291,16.200000000004366,17.19999999999709,16.799999999995634]","12"
"-1","-1","RDK","159","37036","0.0-1.0-158.0","false","a,l","a","200","true","200","1","180","0.5","2","-1","1","600","400","white","gray","3","2","2","18.200000000000397","[23,37.700000000004366,6.299999999995634,16.5,16.60000000000582,16.19999999999709,17.299999999995634,16.700000000004366,16.599999999998545,16.700000000004366,16.599999999998545]","11"
"-1","-1","RDK","160","37254","0.0-1.0-159.0","false","a,l","a","200","true","200","1","180","0.5","2","-1","1","600","400","white","gray","3","2","2","16.70000000000012","[18,15.499999999992724,16.80000000000291,16.5,16.5,16.80000000000291,16.89999999999418,16.700000000004366,16.599999999998545,16.80000000000291,16.599999999998545,16.700000000004366]","12"
"-1","-1","RDK","161","37472","0.0-1.0-160.0","false","a,l","l","200","true","200","1","0","0.5","2","-1","1","600","400","white","gray","3","2","2","20.030000000000292","[17.30000000000291,16.099999999998545,16.80000000000291,16.700000000004366,16.69999999999709,54.19999999999709,12.39999999999418,16.700000000004366,16.69999999999709,16.700000000004366]","10"
"-1","-1","RDK","162","37685","0.0-1.0-161.0","false","a,l","a","200","true","200","1","180","0.5","2","-1","1","600","400","white","gray","3","2","2","18.1272727272722","[17.299999999995634,41.80000000000291,7.5,17,16.69999999999709,16.700000000004366,16.5,16.799999999995634,16.69999999999709,16.5,15.900000000001455]","11"
"-1","-1","RDK","163","37902","0.0-1.0-162.0","false","a,l","l","200","true","200","1","0","0.5","2","-1","1","600","400","white","gray","3","2","2","16.708333333333332","[17.5,16.30000000000291,16.59999999999127,15.80000000000291,25.69999999999709,8.500000000007276,16.09999999999127,17.200000000004366,16.80000000000291,15.80000000000291,17.599999999998545,16.599999999998545]","12"
"-1","-1","RDK","164","38120","0.0-1.0-163.0","false","a,l","a","200","true","200","1","180","0.5","2","-1","1","600","400","white","gray","3","2","2","16.691666666666304","[16.89999999999418,25.500000000007276,7.899999999994179,16.799999999995634,16.5,16.80000000000291,17,16.400000000001455,15.69999999999709,17.500000000007276,16.799999999995634,16.5]","12"
"-1","-1","RDK","165","38337","0.0-1.0-164.0","false","a,l","l","200","true","200","1","0","0.5","2","-1","1","600","400","white","gray","3","2","2","16.691666666666908","[17.30000000000291,16.099999999998545,16.69999999999709,22.000000000007276,11.599999999991269,16.60000000000582,16.599999999998545,16.69999999999709,16.700000000004366,16.69999999999709,16.60000000000582,16.69999999999709]","12"
"-1","-1","RDK","166","38555","0.0-1.0-165.0","false","a,l","l","200","true","200","1","0","0.5","2","-1","1","600","400","white","gray","3","2","2","18.163636363636627","[16.69999999999709,16.200000000004366,16.799999999995634,16.700000000004366,35.799999999995634,13.200000000004366,16.5,17.299999999995634,17.200000000004366,16.69999999999709,16.700000000004366]","11"
"-1","-1","RDK","167","38770","0.0-1.0-166.0","false","a,l","l","200","true","200","1","0","0.5","2","-1","1","600","400","white","gray","3","2","2","16.70000000000012","[23.900000000001455,14.200000000004366,11.799999999988358,17.10000000000582,16.700000000004366,16.69999999999709,16.700000000004366,16.499999999992724,16.099999999998545,16.40000000000873,17.69999999999709,16.599999999998545]","12"
"-1","-1","RDK","168","38990","0.0-1.0-167.0","false","a,l","l","200","true","200","1","0","0.5","2","-1","1","600","400","white","gray","3","2","2","16.70000000000012","[18,16,16.40000000000873,16.59999999999127,16.60000000000582,16.799999999995634,16.700000000004366,16.299999999995634,16.19999999999709,17.500000000007276,15.80000000000291,17.499999999992724]","12"
"-1","-1","RDK","169","39204","0.0-1.0-168.0","false","a,l","l","200","true","200","1","0","0.5","2","-1","1","600","400","white","gray","3","2","2","16.70000000000012","[17.400000000001455,15.30000000000291,17.69999999999709,16.599999999998545,16.69999999999709,16.60000000000582,32.299999999995634,1.7000000000043656,15.599999999998545,17.200000000004366,16.5,16.799999999995634]","12"
"-1","-1","RDK","170","39421","0.0-1.0-169.0","false","a,l","a","200","true","200","1","180","0.5","2","-1","1","600","400","white","gray","3","2","2","18.209090909091834","[17.300000000010186,16.19999999999709,40.30000000000291,9.699999999989814,16.80000000000291,16.599999999998545,16.700000000004366,16.69999999999709,16.69999999999709,16.60000000000582,16.700000000004366]","11"
"-1","-1","RDK","171","39638","0.0-1.0-170.0","false","a,l","a","200","true","200","1","180","0.5","2","-1","1","600","400","white","gray","3","2","2","18.209090909090513","[17.400000000001455,16.10000000000582,16.699999999989814,16.80000000000291,35.5,14.400000000001455,16.69999999999709,16.700000000004366,16.69999999999709,16.700000000004366,16.59999999999127]","11"
"-1","-1","RDK","172","39852","0.0-1.0-171.0","false","a,l","l","200","true","200","1","0","0.5","2","-1","1","600","400","white","gray","3","2","2","16.708333333333332","[17.400000000001455,15.400000000001455,17.69999999999709,16.60000000000582,16.69999999999709,16.700000000004366,16.69999999999709,16,17.19999999999709,16.69999999999709,16.700000000004366,16.69999999999709]","12"
"-1","-1","RDK","173","40073","0.0-1.0-172.0","false","a,l","l","200","true","200","1","0","0.5","2","-1","1","600","400","white","gray","3","2","2","16.691666666666908","[17.19999999999709,16.40000000000873,21.499999999992724,11.599999999998545,16.900000000001455,16.60000000000582,16.799999999995634,16.69999999999709,16.700000000004366,16.599999999998545,16.69999999999709,16.60000000000582]","12"
"-1","-1","RDK","174","40288","0.0-1.0-173.0","false","a,l","a","200","true","200","1","180","0.5","2","-1","1","600","400","white","gray","3","2","2","18.21818181818195","[17.30000000000291,16.400000000001455,16.69999999999709,16.599999999998545,35.30000000000291,13.80000000000291,17.5,16.80000000000291,16.69999999999709,16.5,16.799999999995634]","11"
"-1","-1","RDK","175","40505","0.0-1.0-174.0","false","a,l","a","200","true","200","1","180","0.5","2","-1","1","600","400","white","gray","3","2","2","18.209090909091174","[25.5,38.200000000004366,2.2999999999956344,16.39999999999418,17.80000000000291,15.700000000004366,17.599999999998545,16.700000000004366,16.599999999998545,16.80000000000291,16.69999999999709]","11"
"-1","-1","RDK","176","40722","0.0-1.0-175.0","false","a,l","a","200","true","200","1","180","0.5","2","-1","1","600","400","white","gray","3","2","2","16.691666666666908","[23.60000000000582,15.69999999999709,10.89999999999418,16.800000000010186,16.59999999999127,16.60000000000582,16.799999999995634,16.60000000000582,16.69999999999709,16.700000000004366,16.69999999999709,16.599999999998545]","12"
"-1","-1","RDK","177","40938","0.0-1.0-176.0","false","a,l","a","200","true","200","1","180","0.5","2","-1","1","600","400","white","gray","3","2","2","16.691666666666304","[17.5,16.099999999998545,16.60000000000582,16.69999999999709,16.700000000004366,16.599999999998545,16.19999999999709,17.099999999998545,21,12.30000000000291,16.799999999995634,16.69999999999709]","12"
"-1","-1","RDK","178","41155","0.0-1.0-177.0","false","a,l","l","200","true","200","1","0","0.5","2","-1","1","600","400","white","gray","3","2","2","16.683333333333696","[17.200000000004366,16.30000000000291,30.299999999995634,3,17.200000000004366,16.19999999999709,16.69999999999709,16.599999999998545,16.700000000004366,16.69999999999709,16.69999999999709,16.60000000000582]","12"
"-1","-1","RDK","179","41372","0.0-1.0-178.0","false","a,l","a","200","true","200","1","180","0.5","2","-1","1","600","400","white","gray","3","2","2","16.70000000000012","[16.299999999995634,17.30000000000291,16.69999999999709,16.700000000004366,16.599999999998545,27.900000000001455,4.599999999998545,16.5,17.69999999999709,16.700000000004366,16.69999999999709,16.700000000004366]","12"
"-1","-1","RDK","180","41586","0.0-1.0-179.0","false","a,l","a","200","true","200","1","180","0.5","2","-1","1","600","400","white","gray","3","2","2","18.48000000000029","[18.19999999999709,34.700000000004366,15,16.80000000000291,16.69999999999709,16.599999999998545,16.69999999999709,16.700000000004366,16.69999999999709,16.700000000004366]","10"
"-1","-1","RDK","181","41788","0.0-1.0-180.0","false","a,l","l","200","true","200","1","0","0.5","2","-1","1","600","400","white","gray","3","2","2","16.658333333333456","[17.19999999999709,15.19999999999709,17.400000000001455,26.900000000001455,5.400000000001455,17.599999999998545,16.799999999995634,16.700000000004366,16.69999999999709,16.60000000000582,16.69999999999709,16.700000000004366]","12"
"-1","-1","RDK","182","42005","0.0-1.0-181.0","false","a,l","l","200","true","200","1","0","0.5","2","-1","1","600","400","white","gray","3","2","2","16.699999999999516","[17.19999999999709,16.5,16.60000000000582,16.69999999999709,16.69999999999709,16.5,26.500000000007276,6.19999999999709,21.299999999995634,12.599999999998545,16.80000000000291,16.799999999995634]","12"
"-1","-1","RDK","183","42222","0.0-1.0-182.0","false","a,l","a","200","true","200","1","180","0.5","2","-1","1","600","400","white","gray","3","2","2","16.699999999999516","[17.299999999995634,16.30000000000291,16.599999999998545,22.80000000000291,10.5,16.799999999995634,16.599999999998545,16.80000000000291,16.599999999998545,16.69999999999709,16.69999999999709,16.700000000004366]","12"
"-1","-1","RDK","184","42439","0.0-1.0-183.0","false","a,l","l","200","true","200","1","0","0.5","2","-1","1","600","400","white","gray","3","2","2","18.209090909091174","[17.30000000000291,16.19999999999709,16.69999999999709,16.700000000004366,16.69999999999709,36.30000000000291,13.599999999998545,16.69999999999709,16.800000000010186,16.499999999992724,16.80000000000291]","11"
"-1","-1","RDK","185","42655","0.0-1.0-184.0","false","a,l","l","200","true","200","1","0","0.5","2","-1","1","600","400","white","gray","3","2","2","18.209090909091834","[17.700000000004366,36.599999999998545,12.200000000004366,17.099999999998545,16.69999999999709,16.700000000004366,16.69999999999709,16.599999999998545,16.60000000000582,16.19999999999709,17.200000000004366]","11"
"-1","-1","RDK","186","42870","0.0-1.0-185.0","false","a,l","l","200","true","200","1","0","0.5","2","-1","1","600","400","white","gray","3","2","2","16.70833333333394","[16.80000000000291,16.799999999995634,15.700000000004366,32.200000000004366,1.999999999992724,16.10000000000582,17.5,16.69999999999709,16.60000000000582,16.69999999999709,16.700000000004366,16.69999999999709]","12"
"-1","-1","RDK","187","43089","0.0-1.0-186.0","false","a,l","l","200","true","200","1","0","0.5","2","-1","1","600","400","white","gray","3","2","2","18.209090909091174","[16.800000000010186,16.89999999999418,16.499999999992724,16.700000000004366,16.69999999999709,37.60000000000582,12.299999999995634,16.700000000004366,15.69999999999709,17.69999999999709,16.700000000004366]","11"
"-1","-1","RDK","188","43303","0.0-1.0-187.0","false","a,l","a","200","true","200","1","180","0.5","2","-1","1","600","400","white","gray","3","2","2","18.21818181818129","[23.900000000001455,27.599999999998545,15.30000000000291,16.799999999995634,16.69999999999709,16.700000000004366,16.599999999998545,16.80000000000291,15.900000000001455,17.299999999995634,16.799999999995634]","11"
"-1","-1","RDK","189","43527","0.0-1.0-188.0","false","a,l","a","200","true","200","1","180","0.5","2","-1","1","600","400","white","gray","3","2","2","18.21818181818195","[17.200000000004366,16.39999999999418,16.700000000004366,35,15.099999999998545,16.60000000000582,16.69999999999709,16.700000000004366,16.59999999999127,16.799999999995634,16.60000000000582]","11"
"-1","-1","RDK","190","43736","0.0-1.0-189.0","false","a,l","a","200","true","200","1","180","0.5","2","-1","1","600","400","white","gray","3","2","2","16.772727272727273","[18.09999999999127,16.400000000001455,16.60000000000582,16.69999999999709,16.69999999999709,16.599999999998545,24.700000000004366,8.80000000000291,16.39999999999418,16.900000000001455,16.60000000000582]","11"
"-1","-1","RDK","191","43939","0.0-1.0-190.0","false","a,l","l","200","true","200","1","0","0.5","2","-1","1","600","400","white","gray","3","2","2","18.172727272727403","[16.700000000004366,15.499999999992724,37.30000000000291,13.69999999999709,16.700000000004366,16.599999999998545,16.69999999999709,16.69999999999709,16.700000000004366,16.60000000000582,16.69999999999709]","11"
"-1","-1","RDK","192","44153","0.0-1.0-191.0","false","a,l","a","200","true","200","1","180","0.5","2","-1","1","600","400","white","gray","3","2","2","16.78181818181871","[19.10000000000582,15.400000000001455,16.69999999999709,16.599999999998545,21.400000000001455,11.5,22.099999999998545,11.700000000004366,16.799999999995634,16.60000000000582,16.69999999999709]","11"
"-1","-1","RDK","193","44357","0.0-1.0-192.0","false","a,l","l","200","true","200","1","0","0.5","2","-1","1","600","400","white","gray","3","2","2","18.172727272727403","[15.900000000001455,37.19999999999709,12.500000000007276,17.599999999998545,15.89999999999418,17.40000000000873,16.69999999999709,16.69999999999709,16.599999999998545,16.700000000004366,16.69999999999709]","11"
"-1","-1","RDK","194","44570","0.0-1.0-193.0","false","a,l","a","200","true","200","1","180","0.5","2","-1","1","600","400","white","gray","3","2","2","16.763636363635836","[18.69999999999709,16.200000000004366,16.19999999999709,16,24.5,8.89999999999418,17.10000000000582,16.700000000004366,16.799999999995634,16.60000000000582,16.699999999989814]","11"
"-1","-1","RDK","195","44773","0.0-1.0-194.0","false","a,l","l","200","true","200","1","0","0.5","2","-1","1","600","400","white","gray","3","2","2","16.633333333333212","[16.599999999998545,16.5,16.599999999998545,16.599999999998545,16.599999999998545,16.700000000004366,15.900000000001455,29.80000000000291,4.099999999998545,16.799999999995634,16.69999999999709,16.700000000004366]","12"
"-1","-1","RDK","196","44990","0.0-1.0-195.0","false","a,l","l","200","true","200","1","0","0.5","2","-1","1","600","400","white","gray","3","2","2","18.21818181818195","[18.30000000000291,14.400000000001455,42.30000000000291,7.599999999998545,17.19999999999709,17.200000000004366,16.69999999999709,16.700000000004366,16.59999999999127,16.700000000004366,16.69999999999709]","11"
"-1","-1","RDK","197","45209","0.0-1.0-196.0","false","a,l","l","200","true","200","1","0","0.5","2","-1","1","600","400","white","gray","3","2","2","20.029999999999564","[17.39999999999418,15.10000000000582,17.69999999999709,16.69999999999709,51.900000000001455,14.599999999998545,16.900000000001455,16.69999999999709,16.60000000000582,16.69999999999709]","10"
"-1","-1","RDK","198","45421","0.0-1.0-197.0","false","a,l","l","200","true","200","1","0","0.5","2","-1","1","600","400","white","gray","3","2","2","16.791666666667272","[26.80000000000291,15,8.900000000001455,17.400000000001455,16.599999999998545,16.700000000004366,16.69999999999709,16.69999999999709,16.5,16.80000000000291,16.599999999998545,16.80000000000291]","12"
"-1","-1","RDK","199","45639","0.0-1.0-198.0","false","a,l","a","200","true","200","1","180","0.5","2","-1","1","600","400","white","gray","3","2","2","16.683333333333092","[17.19999999999709,16.40000000000873,16.59999999999127,20.400000000001455,12.900000000001455,16.80000000000291,16.69999999999709,16.80000000000291,16.400000000001455,16.89999999999418,16.599999999998545,16.5]","12"
"-1","-1","RDK","200","45857","0.0-1.0-199.0","false","a,l","l","200","true","200","1","0","0.5","2","-1","1","600","400","white","gray","3","2","2","16.70000000000012","[18.200000000004366,15.39999999999418,16.700000000004366,16.60000000000582,16.099999999998545,29.69999999999709,4.099999999998545,16,17.60000000000582,16.69999999999709,16.700000000004366,16.59999999999127]","12"
