rt,key_press,trial_type,trial_index,time_elapsed,internal_node_id,correct,choices,correct_choice,trial_duration,response_ends_trial,number_of_dots,number_of_sets,coherent_direction,coherence,dot_radius,dot_life,move_distance,aperture_width,aperture_height,dot_color,background_color,RDK_type,aperture_type,reinsert_type,frame_rate,frame_rate_array,number_of_frames,
2514,13,text,0,2516,0.0-0.0,,,,,,,,,,,,,,,,,,,,,,,chrome
-1,-1,RDK,1,3726,0.0-1.0-0.0,FALSE,"a,l",l,200,TRUE,200,1,0,0.5,2,-1,1,600,400,white,gray,3,2,2,16.79583333,"[7.484999999999673,10.81500000000051,16.23999999999978,16.63499999999931,17.06000000000131,33.159999999998945,16.485000000000582,17.109999999999673,16.515000000000327,16.49499999999989,16.605000000000473,16.94499999999971]",12,
-1,-1,RDK,2,3943,0.0-1.0-1.0,FALSE,"a,l",a,200,TRUE,200,1,180,0.5,2,-1,1,600,400,white,gray,3,2,2,16.71583333,"[17.38500000000022,16.969999999999345,16.215000000000146,16.969999999999345,16.355000000001382,17.42999999999938,18.204999999999927,14.600000000000364,16.834999999999127,17.050000000000182,16.390000000000327,16.1850000000004]",12,
-1,-1,RDK,3,4159,0.0-1.0-2.0,FALSE,"a,l",l,200,TRUE,200,1,0,0.5,2,-1,1,600,400,white,gray,3,2,2,16.67458333,"[16.590000000000146,16.699999999999818,16.605000000000473,17.105000000000473,16.18499999999949,16.835000000000036,16.545000000000073,16.769999999999527,16.765000000000327,16.729999999999563,16.600000000001273,16.664999999999054]",12,
-1,-1,RDK,4,4376,0.0-1.0-3.0,FALSE,"a,l",a,200,TRUE,200,1,180,0.5,2,-1,1,600,400,white,gray,3,2,2,16.69208333,"[16.914999999999964,16.69500000000062,16.62499999999909,16.74000000000069,18.1899999999996,15.195000000000618,16.704999999999927,17.170000000000073,15.984999999999673,17.31999999999971,16.88500000000022,15.88000000000011]",12,
-1,-1,RDK,5,4593,0.0-1.0-4.0,FALSE,"a,l",l,200,TRUE,200,1,0,0.5,2,-1,1,600,400,white,gray,3,2,2,16.69333333,"[16.94999999999891,16.590000000001055,16.62499999999909,16.69000000000051,17.05500000000029,17.25999999999931,16.050000000000182,16.485000000000582,16.544999999999163,16.670000000000982,16.68499999999949,16.714999999999236]",12,
-1,-1,RDK,6,4809,0.0-1.0-5.0,FALSE,"a,l",a,200,TRUE,200,1,180,0.5,2,-1,1,600,400,white,gray,3,2,2,16.68833333,"[16.895000000000437,16.829999999999927,16.69000000000051,16.55500000000029,16.529999999998836,17.025000000000546,16.324999999999818,17.159999999999854,16.26000000000022,17.789999999999964,15.509999999999309,16.69000000000051]",12,
-1,-1,RDK,7,5026,0.0-1.0-6.0,FALSE,"a,l",l,200,TRUE,200,1,0,0.5,2,-1,1,600,400,white,gray,3,2,2,16.71166667,"[17.034999999999854,16.640000000001237,16.61999999999898,16.88000000000102,16.729999999999563,16.719999999999345,16.88000000000102,16.19499999999971,16.699999999999818,16.765000000000327,16.699999999999818,16.675000000000182]",12,
-1,-1,RDK,8,5242,0.0-1.0-7.0,FALSE,"a,l",a,200,TRUE,200,1,180,0.5,2,-1,1,600,400,white,gray,3,2,2,16.67833333,"[16.840000000000146,16.539999999999964,16.864999999998872,16.605000000000473,16.595000000000255,16.8100000000004,17.31999999999971,16.0600000000004,16.539999999999964,16.720000000000255,16.534999999998945,16.710000000000946]",12,
-1,-1,RDK,9,5460,0.0-1.0-8.0,FALSE,"a,l",a,200,TRUE,200,1,180,0.5,2,-1,1,600,400,white,gray,3,2,2,16.68625,"[16.6899999999996,16.69500000000062,16.729999999999563,16.704999999999927,16.519999999999527,17.13000000000011,16.170000000000073,16.785000000000764,16.5649999999996,16.849999999999454,16.68000000000029,16.714999999999236]",12,
-1,-1,RDK,10,5676,0.0-1.0-9.0,FALSE,"a,l",l,200,TRUE,200,1,0,0.5,2,-1,1,600,400,white,gray,3,2,2,16.715,"[16.975000000000364,16.724999999999454,16.590000000001055,16.784999999999854,17.674999999999272,15.649999999999636,16.530000000000655,16.75,16.579999999999927,16.840000000001055,16.534999999998945,16.94500000000062]",12,
-1,-1,RDK,11,5893,0.0-1.0-10.0,FALSE,"a,l",a,200,TRUE,200,1,180,0.5,2,-1,1,600,400,white,gray,3,2,2,16.68916667,"[16.784999999998945,16.659999999999854,16.69500000000062,16.730000000000473,16.589999999999236,17.790000000000873,15.720000000000255,16.719999999999345,16.75,17.359999999999673,15.784999999999854,16.6850000000004]",12,
-1,-1,RDK,12,6110,0.0-1.0-11.0,FALSE,"a,l",l,200,TRUE,200,1,0,0.5,2,-1,1,600,400,white,gray,3,2,2,16.71,"[16.984999999999673,16.965000000000146,16.529999999998836,16.830000000000837,16.324999999999818,16.8100000000004,16.68499999999949,16.659999999999854,16.600000000000364,17.764999999999418,15.585000000000036,16.780000000000655]",12,
-1,-1,RDK,13,6327,0.0-1.0-12.0,FALSE,"a,l",a,200,TRUE,200,1,180,0.5,2,-1,1,600,400,white,gray,3,2,2,16.71125,"[17.05000000000109,16.704999999999927,16.61499999999978,16.67999999999938,17.68000000000029,15.74499999999989,16.5600000000004,16.704999999999927,16.585000000000036,16.710000000000036,16.729999999999563,16.770000000000437]",12,
-1,-1,RDK,14,6543,0.0-1.0-13.0,FALSE,"a,l",l,200,TRUE,200,1,0,0.5,2,-1,1,600,400,white,gray,3,2,2,16.68,"[16.625,16.845000000000255,16.51000000000022,16.585000000000036,16.659999999999854,16.795000000000073,16.6899999999996,16.69000000000051,16.604999999998654,16.670000000000982,16.6899999999996,16.795000000000073]",12,
-1,-1,RDK,15,6760,0.0-1.0-14.0,FALSE,"a,l",a,200,TRUE,200,1,180,0.5,2,-1,1,600,400,white,gray,3,2,2,16.70958333,"[17.969999999999345,16.075000000000728,16.514999999999418,16.545000000000982,16.524999999999636,16.74499999999989,16.6850000000004,17.164999999999964,16.045000000000073,16.94499999999971,16.605000000000473,16.69499999999971]",12,
-1,-1,RDK,16,6977,0.0-1.0-15.0,FALSE,"a,l",a,200,TRUE,200,1,180,0.5,2,-1,1,600,400,white,gray,3,2,2,16.70125,"[17.00500000000011,16.674999999999272,17.140000000000327,16.215000000000146,17.425000000000182,16.140000000000327,16.49999999999909,16.675000000000182,16.734999999999673,16.600000000000364,17.57000000000062,15.734999999998763]",12,
-1,-1,RDK,17,7193,0.0-1.0-16.0,FALSE,"a,l",l,200,TRUE,200,1,0,0.5,2,-1,1,600,400,white,gray,3,2,2,16.61958333,"[16.06999999999971,17.835000000000036,15.409999999999854,16.719999999999345,16.785000000000764,16.534999999998945,17.19000000000051,16.48999999999978,16.395000000000437,16.63000000000011,16.63500000000022,16.739999999998872]",12,
-1,-1,RDK,18,7410,0.0-1.0-17.0,FALSE,"a,l",a,200,TRUE,200,1,180,0.5,2,-1,1,600,400,white,gray,3,2,2,16.73875,"[16.9950000000008,17.034999999999854,16.5,16.544999999999163,16.710000000000946,16.590000000000146,16.67999999999938,16.845000000000255,16.529999999999745,16.69499999999971,16.660000000001673,17.079999999999927]",12,
-1,-1,RDK,19,7627,0.0-1.0-18.0,FALSE,"a,l",l,200,TRUE,200,1,0,0.5,2,-1,1,600,400,white,gray,3,2,2,16.71208333,"[17.114999999997963,16.62500000000182,16.599999999998545,16.6150000000016,17.69499999999971,16.00999999999931,16.595000000001164,16.44999999999891,16.649999999999636,16.704999999999927,16.61499999999978,16.8700000000008]",12,
-1,-1,RDK,20,7843,0.0-1.0-19.0,FALSE,"a,l",a,200,TRUE,200,1,180,0.5,2,-1,1,600,400,white,gray,3,2,2,16.69916667,"[17.13000000000102,16.649999999999636,16.55000000000109,16.74499999999898,16.670000000000073,16.479999999999563,17.024999999999636,18.105000000001382,15.344999999999345,16.76000000000022,16.270000000000437,16.659999999999854]",12,
-1,-1,RDK,21,8060,0.0-1.0-20.0,FALSE,"a,l",l,200,TRUE,200,1,0,0.5,2,-1,1,600,400,white,gray,3,2,2,16.71708333,"[17.93499999999949,16.204999999999927,16.3700000000008,17.420000000000073,16.109999999998763,16.395000000000437,16.69499999999971,16.725000000000364,16.534999999999854,17.299999999999272,16.110000000000582,16.80500000000029]",12,
-1,-1,RDK,22,8277,0.0-1.0-21.0,FALSE,"a,l",a,200,TRUE,200,1,180,0.5,2,-1,1,600,400,white,gray,3,2,2,16.69625,"[16.875,16.80500000000029,16.729999999999563,16.30999999999949,17.01000000000022,16.50000000000182,16.659999999999854,16.774999999997817,16.595000000001164,16.664999999999054,16.645000000000437,16.784999999999854]",12,
-1,-1,RDK,23,8494,0.0-1.0-22.0,FALSE,"a,l",l,200,TRUE,200,1,0,0.5,2,-1,1,600,400,white,gray,3,2,2,16.71833333,"[17.204999999999927,16.6200000000008,16.734999999998763,16.659999999999854,16.7549999999992,16.62500000000182,16.674999999999272,16.7450000000008,16.6349999999984,16.73999999999978,16.460000000000946,16.764999999999418]",12,
-1,-1,RDK,24,8710,0.0-1.0-23.0,FALSE,"a,l",a,200,TRUE,200,1,180,0.5,2,-1,1,600,400,white,gray,3,2,2,16.70958333,"[17.980000000001382,15.909999999999854,16.51000000000022,16.674999999999272,16.635000000002037,16.659999999999854,16.609999999998763,16.76000000000022,16.594999999999345,17.155000000000655,16.344999999999345,16.68000000000029]",12,
-1,-1,RDK,25,8926,0.0-1.0-24.0,FALSE,"a,l",a,200,TRUE,200,1,180,0.5,2,-1,1,600,400,white,gray,3,2,2,16.695,"[17.020000000000437,16.724999999998545,16.8650000000016,16.51000000000022,16.7450000000008,16.709999999999127,16.409999999999854,16.670000000000073,16.854999999999563,16.389999999999418,16.8700000000008,16.56999999999971]",12,
-1,-1,RDK,26,9144,0.0-1.0-25.0,FALSE,"a,l",l,200,TRUE,200,1,0,0.5,2,-1,1,600,400,white,gray,3,2,2,16.69125,"[17.0149999999976,16.720000000001164,16.479999999999563,16.700000000000728,16.61999999999898,17.62500000000182,15.860000000000582,16.839999999998327,16.55999999999949,16.600000000000364,16.664999999999054,16.610000000000582]",12,
-1,-1,RDK,27,9361,0.0-1.0-26.0,FALSE,"a,l",l,200,TRUE,200,1,0,0.5,2,-1,1,600,400,white,gray,3,2,2,16.70541667,"[17.909999999999854,15.770000000000437,16.68000000000029,16.69499999999971,16.600000000000364,16.720000000001164,16.6349999999984,16.9950000000008,17.56500000000051,15.849999999998545,16.390000000001237,16.655000000000655]",12,
-1,-1,RDK,28,9576,0.0-1.0-27.0,FALSE,"a,l",l,200,TRUE,200,1,0,0.5,2,-1,1,600,400,white,gray,3,2,2,16.69541667,"[17.079999999999927,16.520000000000437,16.739999999997963,16.785000000001673,17.23999999999978,16.029999999998836,16.659999999999854,16.710000000000946,16.715000000000146,16.594999999999345,17.205000000001746,16.06499999999869]",12,
-1,-1,RDK,29,9794,0.0-1.0-28.0,FALSE,"a,l",a,200,TRUE,200,1,180,0.5,2,-1,1,600,400,white,gray,3,2,2,16.70416667,"[17.139999999999418,16.604999999999563,16.6299999999992,16.68500000000131,16.609999999998763,16.715000000000146,16.94499999999971,17.5,15.93500000000131,16.524999999999636,16.604999999999563,16.55500000000029]",12,
-1,-1,RDK,30,10011,0.0-1.0-29.0,FALSE,"a,l",l,200,TRUE,200,1,0,0.5,2,-1,1,600,400,white,gray,3,2,2,16.70458333,"[17.164999999999054,16.56500000000233,16.539999999999054,16.74499999999898,16.840000000000146,16.625,16.659999999999854,16.649999999999636,16.520000000000437,16.98999999999978,16.514999999999418,16.640000000001237]",12,
-1,-1,RDK,31,10227,0.0-1.0-30.0,FALSE,"a,l",l,200,TRUE,200,1,0,0.5,2,-1,1,600,400,white,gray,3,2,2,16.70375,"[17.034999999999854,16.51000000000022,16.895000000000437,17.020000000000437,16.544999999998254,16.575000000000728,16.56499999999869,16.7450000000008,16.530000000000655,16.6299999999992,16.69000000000051,16.704999999999927]",12,
-1,-1,RDK,32,10444,0.0-1.0-31.0,FALSE,"a,l",l,200,TRUE,200,1,0,0.5,2,-1,1,600,400,white,gray,3,2,2,16.64208333,"[16.429999999998472,16.55000000000109,16.61499999999978,16.715000000000146,16.600000000000364,17.420000000000073,16.18499999999949,16.640000000001237,16.590000000000146,16.859999999998763,16.360000000000582,16.73999999999978]",12,
-1,-1,RDK,33,10661,0.0-1.0-32.0,FALSE,"a,l",a,200,TRUE,200,1,180,0.5,2,-1,1,600,400,white,gray,3,2,2,16.70833333,"[17.69999999999891,16.13500000000022,16.515000000001237,16.75,16.584999999999127,16.69000000000051,16.679999999998472,16.725000000002183,17.269999999998618,16.149999999999636,17.715000000001965,15.584999999999127]",12,
-1,-1,RDK,34,10876,0.0-1.0-33.0,FALSE,"a,l",l,200,TRUE,200,1,0,0.5,2,-1,1,600,400,white,gray,3,2,2,16.70590909,"[17.030000000000655,16.584999999999127,16.76000000000022,16.670000000000073,17.219999999999345,16.360000000000582,16.43499999999949,16.655000000000655,17.445000000001528,15.859999999998763,16.74499999999898]",11,
-1,-1,RDK,35,11078,0.0-1.0-34.0,FALSE,"a,l",a,200,TRUE,200,1,180,0.5,2,-1,1,600,400,white,gray,3,2,2,16.6075,"[15.904999999998836,16.640000000001237,16.56500000000051,16.82999999999811,16.61499999999978,16.640000000001237,16.674999999999272,16.649999999999636,17.034999999999854,16.50000000000182,16.609999999998763,16.625]",12,
-1,-1,RDK,36,11293,0.0-1.0-35.0,FALSE,"a,l",a,200,TRUE,200,1,180,0.5,2,-1,1,600,400,white,gray,3,2,2,16.77681818,"[17.105000000001382,16.670000000000073,16.584999999999127,16.784999999999854,16.595000000001164,16.779999999998836,17.48999999999978,16.020000000000437,16.340000000000146,16.69499999999971,17.479999999999563]",11,
-1,-1,RDK,37,11494,0.0-1.0-36.0,FALSE,"a,l",l,200,TRUE,200,1,0,0.5,2,-1,1,600,400,white,gray,3,2,2,16.53875,"[15.090000000000146,16.575000000000728,16.74499999999898,16.735000000000582,16.55999999999949,17.450000000000728,16.409999999999854,18.054999999998472,14.81500000000051,16.80999999999949,16.570000000001528,16.649999999997817]",12,
-1,-1,RDK,38,11712,0.0-1.0-37.0,FALSE,"a,l",l,200,TRUE,200,1,0,0.5,2,-1,1,600,400,white,gray,3,2,2,16.70083333,"[17.98999999999978,16.159999999999854,16.225000000000364,16.674999999999272,16.605000000001382,16.825000000000728,16.659999999999854,17.170000000000073,16.12499999999818,16.825000000000728,16.700000000000728,16.44999999999891]",12,
-1,-1,RDK,39,11928,0.0-1.0-38.0,FALSE,"a,l",a,200,TRUE,200,1,180,0.5,2,-1,1,600,400,white,gray,3,2,2,16.70458333,"[17.209999999999127,16.610000000000582,16.604999999999563,16.56500000000051,16.8700000000008,16.6299999999992,16.730000000001382,16.549999999999272,16.654999999998836,16.610000000000582,16.67500000000109,16.7450000000008]",12,
-1,-1,RDK,40,12145,0.0-1.0-39.0,FALSE,"a,l",l,200,TRUE,200,1,0,0.5,2,-1,1,600,400,white,gray,3,2,2,16.69541667,"[17.109999999998763,16.4950000000008,16.76000000000022,16.68499999999949,16.610000000000582,17.7450000000008,15.744999999998981,16.909999999999854,16.375,16.725000000000364,16.63500000000022,16.549999999999272]",12,
-1,-1,RDK,41,12362,0.0-1.0-40.0,FALSE,"a,l",a,200,TRUE,200,1,180,0.5,2,-1,1,600,400,white,gray,3,2,2,16.71541667,"[16.98999999999978,16.644999999998618,16.715000000001965,16.674999999999272,16.709999999999127,16.700000000000728,16.730000000001382,16.465000000000146,17.659999999999854,16.484999999998763,16.025000000001455,16.784999999998035]",12,
-1,-1,RDK,42,12578,0.0-1.0-41.0,FALSE,"a,l",l,200,TRUE,200,1,0,0.5,2,-1,1,600,400,white,gray,3,2,2,16.71541667,"[17.030000000000655,16.57499999999891,17.110000000000582,16.334999999999127,16.895000000000437,16.604999999999563,16.985000000000582,16.075000000000728,16.839999999998327,16.55500000000029,16.650000000001455,16.93000000000029]",12,
-1,-1,RDK,43,12794,0.0-1.0-42.0,FALSE,"a,l",a,200,TRUE,200,1,180,0.5,2,-1,1,600,400,white,gray,3,2,2,16.595,"[15.845000000001164,16.644999999998618,16.535000000001673,16.61999999999898,16.799999999999272,17.540000000000873,15.959999999999127,16.6299999999992,16.650000000001455,16.784999999999854,16.56500000000051,16.56500000000051]",12,
-1,-1,RDK,44,13012,0.0-1.0-43.0,FALSE,"a,l",a,200,TRUE,200,1,180,0.5,2,-1,1,600,400,white,gray,3,2,2,16.70458333,"[17.040000000000873,16.69999999999891,16.67000000000189,16.594999999997526,16.645000000000437,16.770000000002256,16.589999999998327,16.645000000000437,17.594999999999345,16.410000000001673,16.169999999998254,16.625]",12,
-1,-1,RDK,45,13227,0.0-1.0-44.0,FALSE,"a,l",a,200,TRUE,200,1,180,0.5,2,-1,1,600,400,white,gray,3,2,2,16.70791667,"[17.090000000000146,17.335000000000946,16.349999999998545,16.289999999999054,16.610000000000582,16.780000000000655,16.57499999999891,16.650000000001455,16.654999999998836,16.715000000000146,17.395000000000437,16.049999999999272]",12,
-1,-1,RDK,46,13445,0.0-1.0-45.0,FALSE,"a,l",a,200,TRUE,200,1,180,0.5,2,-1,1,600,400,white,gray,3,2,2,16.63333333,"[16.36499999999978,16.525000000001455,16.654999999998836,16.695000000001528,16.609999999998763,17.604999999999563,15.915000000002692,16.519999999998618,16.959999999999127,16.43499999999949,16.69000000000051,16.625]",12,
-1,-1,RDK,47,13662,0.0-1.0-46.0,FALSE,"a,l",a,200,TRUE,200,1,180,0.5,2,-1,1,600,400,white,gray,3,2,2,16.695,"[17.73999999999978,16.079999999999927,16.479999999999563,16.659999999999854,16.780000000002474,16.534999999998035,16.860000000000582,16.905000000000655,17.334999999999127,15.959999999999127,16.56000000000131,16.44499999999971]",12,
-1,-1,RDK,48,13878,0.0-1.0-47.0,FALSE,"a,l",a,200,TRUE,200,1,180,0.5,2,-1,1,600,400,white,gray,3,2,2,16.70666667,"[17.11499999999978,16.51000000000022,16.579999999999927,17.639999999999418,15.9950000000008,16.519999999998618,16.67500000000109,16.659999999999854,16.67500000000109,16.664999999999054,16.735000000000582,16.709999999999127]",12,
-1,-1,RDK,49,14096,0.0-1.0-48.0,FALSE,"a,l",a,200,TRUE,200,1,180,0.5,2,-1,1,600,400,white,gray,3,2,2,16.71583333,"[17.279999999998836,16.31000000000131,16.724999999998545,16.645000000000437,16.695000000001528,17.43499999999767,16.014999999999418,16.895000000000437,16.635000000002037,16.55500000000029,16.69000000000051,16.709999999999127]",12,
-1,-1,RDK,50,14312,0.0-1.0-49.0,FALSE,"a,l",l,200,TRUE,200,1,0,0.5,2,-1,1,600,400,white,gray,3,2,2,16.68583333,"[17.600000000000364,15.909999999999854,16.68499999999767,16.62000000000262,16.649999999997817,16.640000000001237,16.799999999999272,16.625,16.67500000000109,17.210000000000946,16.144999999998618,16.670000000000073]",12,
-1,-1,RDK,51,14528,0.0-1.0-50.0,FALSE,"a,l",a,200,TRUE,200,1,180,0.5,2,-1,1,600,400,white,gray,3,2,2,16.69875,"[17.06999999999971,16.479999999999563,17.3849999999984,15.985000000000582,16.899999999999636,16.55000000000109,16.625,16.709999999999127,16.80500000000211,16.57999999999811,16.659999999999854,16.635000000002037]",12,
-1,-1,RDK,52,14746,0.0-1.0-51.0,FALSE,"a,l",a,200,TRUE,200,1,180,0.5,2,-1,1,600,400,white,gray,3,2,2,16.635,"[16.360000000000582,17.704999999999927,15.594999999999345,16.659999999999854,16.799999999999272,16.540000000000873,16.610000000000582,17.549999999999272,15.885000000000218,16.665000000000873,16.6299999999992,16.61999999999898]",12,
-1,-1,RDK,53,14963,0.0-1.0-52.0,FALSE,"a,l",a,200,TRUE,200,1,180,0.5,2,-1,1,600,400,white,gray,3,2,2,16.70916667,"[17.054999999998472,16.695000000001528,17.709999999999127,15.710000000000946,16.795000000000073,16.600000000000364,16.594999999997526,16.795000000000073,17.67000000000189,15.659999999999854,16.56500000000051,16.659999999999854]",12,
-1,-1,RDK,54,15178,0.0-1.0-53.0,FALSE,"a,l",a,200,TRUE,200,1,180,0.5,2,-1,1,600,400,white,gray,3,2,2,16.67583333,"[16.955000000001746,16.399999999999636,16.74499999999898,17.470000000001164,16.225000000000364,16.56499999999869,16.530000000000655,16.575000000000728,16.919999999998254,16.51000000000022,16.600000000000364,16.61499999999978]",12,
-1,-1,RDK,55,15396,0.0-1.0-54.0,FALSE,"a,l",l,200,TRUE,200,1,0,0.5,2,-1,1,600,400,white,gray,3,2,2,16.6975,"[16.985000000000582,16.674999999999272,16.63000000000102,16.55999999999949,16.860000000000582,16.73999999999978,16.610000000000582,16.739999999997963,16.820000000001528,16.405000000000655,16.62499999999818,16.720000000002983]",12,
-1,-1,RDK,56,15613,0.0-1.0-55.0,FALSE,"a,l",l,200,TRUE,200,1,0,0.5,2,-1,1,600,400,white,gray,3,2,2,16.68875,"[16.909999999999854,16.525000000001455,17.744999999997162,15.775000000001455,16.594999999999345,16.6150000000016,16.825000000000728,16.584999999999127,16.7599999999984,16.81500000000051,19.445000000001528,13.670000000001892]",12,
-1,-1,RDK,57,15827,0.0-1.0-56.0,FALSE,"a,l",l,200,TRUE,200,1,0,0.5,2,-1,1,600,400,white,gray,3,2,2,16.685,"[16.975000000002183,16.475000000000364,16.735000000000582,17.49999999999818,16.1200000000008,16.55500000000029,16.469999999997526,16.850000000002183,17.50500000000102,15.989999999997963,16.359999999996944]",11,
-1,-1,RDK,58,16030,0.0-1.0-57.0,FALSE,"a,l",l,200,TRUE,200,1,0,0.5,2,-1,1,600,400,white,gray,3,2,2,16.58041667,"[16.18000000000029,16.290000000000873,16.50499999999738,16.67000000000189,16.600000000002183,16.834999999999127,16.645000000000437,16.604999999999563,17.5099999999984,16.014999999999418,16.614999999997963,16.49500000000262]",12,
-1,-1,RDK,59,16244,0.0-1.0-58.0,FALSE,"a,l",a,200,TRUE,200,1,180,0.5,2,-1,1,600,400,white,gray,3,2,2,16.70681818,"[16.975000000002183,16.56999999999971,16.80500000000029,17.389999999999418,15.930000000000291,16.674999999999272,16.600000000002183,16.68499999999767,16.68999999999869,17.56000000000131,15.895000000000437]",11,
-1,-1,RDK,60,16447,0.0-1.0-59.0,FALSE,"a,l",l,200,TRUE,200,1,0,0.5,2,-1,1,600,400,white,gray,3,2,2,16.55958333,"[15.580000000001746,16.389999999999418,17.279999999998836,15.950000000000728,17.31999999999971,16.885000000002037,16.239999999997963,16.474999999998545,16.595000000001164,17.1349999999984,16.270000000004075,16.594999999997526]",12,
-1,-1,RDK,61,16663,0.0-1.0-60.0,FALSE,"a,l",a,200,TRUE,200,1,180,0.5,2,-1,1,600,400,white,gray,3,2,2,16.70625,"[17.92000000000189,15.93999999999869,16.74500000000262,16.49499999999898,16.69499999999971,16.81000000000131,16.469999999997526,16.700000000000728,16.590000000000146,17.0099999999984,16.42500000000291,16.674999999999272]",12,
-1,-1,RDK,62,16880,0.0-1.0-61.0,FALSE,"a,l",l,200,TRUE,200,1,0,0.5,2,-1,1,600,400,white,gray,3,2,2,16.695,"[16.834999999999127,16.665000000000873,16.69999999999709,16.645000000000437,16.94499999999971,16.570000000003347,16.659999999996217,16.750000000003638,16.43999999999869,16.74499999999898,16.764999999999418,16.62000000000262]",12,
-1,-1,RDK,63,17096,0.0-1.0-62.0,FALSE,"a,l",l,200,TRUE,200,1,0,0.5,2,-1,1,600,400,white,gray,3,2,2,16.60625,"[16.05999999999767,16.43499999999767,16.700000000000728,16.735000000000582,16.594999999997526,16.67000000000189,16.909999999999854,16.415000000000873,16.70499999999811,16.4800000000032,16.860000000000582,16.709999999999127]",12,
-1,-1,RDK,64,17313,0.0-1.0-63.0,FALSE,"a,l",a,200,TRUE,200,1,180,0.5,2,-1,1,600,400,white,gray,3,2,2,16.70541667,"[17.86999999999898,15.904999999998836,16.63000000000102,16.68500000000131,16.69999999999709,16.650000000001455,16.649999999997817,16.660000000003492,16.81500000000233,17.14999999999418,16.135000000002037,16.614999999997963]",12,
-1,-1,RDK,65,17530,0.0-1.0-64.0,FALSE,"a,l",l,200,TRUE,200,1,0,0.5,2,-1,1,600,400,white,gray,3,2,2,16.70333333,"[17.049999999999272,16.709999999999127,16.575000000000728,16.674999999999272,17.510000000002037,16.109999999996944,16.400000000001455,16.674999999999272,16.63000000000102,17.395000000000437,16.159999999999854,16.549999999999272]",12,
-1,-1,RDK,66,17747,0.0-1.0-65.0,FALSE,"a,l",l,200,TRUE,200,1,0,0.5,2,-1,1,600,400,white,gray,3,2,2,16.6975,"[17.19499999999971,16.375,17.084999999999127,16.3849999999984,16.610000000000582,16.835000000002765,16.594999999997526,16.55000000000291,16.844999999997526,16.674999999999272,16.540000000000873,16.68000000000029]",12,
-1,-1,RDK,67,17963,0.0-1.0-66.0,FALSE,"a,l",a,200,TRUE,200,1,180,0.5,2,-1,1,600,400,white,gray,3,2,2,16.68875,"[17.62000000000262,15.919999999998254,17.354999999999563,15.985000000000582,16.75,16.544999999998254,16.720000000001164,16.8550000000032,16.375,16.99499999999898,16.539999999997235,16.6050000000032]",12,
-1,-1,RDK,68,18180,0.0-1.0-67.0,FALSE,"a,l",a,200,TRUE,200,1,180,0.5,2,-1,1,600,400,white,gray,3,2,2,16.69791667,"[17.109999999996944,16.725000000002183,16.51499999999578,16.584999999999127,17.510000000002037,16.00500000000102,16.649999999997817,16.720000000004802,16.719999999997526,16.63000000000102,16.6150000000016,16.589999999996508]",12,
-1,-1,RDK,69,18397,0.0-1.0-68.0,FALSE,"a,l",a,200,TRUE,200,1,180,0.5,2,-1,1,600,400,white,gray,3,2,2,16.71375,"[17.139999999999418,16.479999999999563,16.69000000000233,16.669999999998254,16.74499999999898,16.7400000000016,16.44499999999971,17.770000000000437,15.69999999999709,16.610000000000582,16.75500000000102,16.81999999999971]",12,
-1,-1,RDK,70,18614,0.0-1.0-69.0,FALSE,"a,l",a,200,TRUE,200,1,180,0.5,2,-1,1,600,400,white,gray,3,2,2,16.69541667,"[17.6349999999984,15.989999999997963,16.760000000002037,16.56999999999971,16.520000000000437,16.900000000001455,16.57999999999447,16.68000000000393,17.62999999999738,15.830000000001746,16.9900000000016,16.2599999999984]",12,
-1,-1,RDK,71,18829,0.0-1.0-70.0,FALSE,"a,l",l,200,TRUE,200,1,0,0.5,2,-1,1,600,400,white,gray,3,2,2,16.67958333,"[16.845000000001164,16.56499999999869,16.790000000000873,16.55999999999767,16.889999999999418,16.625000000003638,16.709999999999127,16.74499999999898,16.529999999998836,16.81999999999971,16.465000000000146,16.610000000000582]",12,
-1,-1,RDK,72,19047,0.0-1.0-71.0,FALSE,"a,l",a,200,TRUE,200,1,180,0.5,2,-1,1,600,400,white,gray,3,2,2,16.64875,"[16.645000000000437,16.279999999998836,16.729999999999563,16.715000000000146,16.68000000000393,16.55500000000029,16.93499999999767,16.57999999999811,16.61999999999898,16.67000000000189,16.584999999999127,16.790000000000873]",12,
-1,-1,RDK,73,19264,0.0-1.0-72.0,FALSE,"a,l",l,200,TRUE,200,1,0,0.5,2,-1,1,600,400,white,gray,3,2,2,16.70166667,"[17.709999999999127,15.99500000000262,16.82999999999811,16.43000000000029,16.760000000002037,16.734999999996944,16.705000000001746,16.860000000000582,16.55500000000029,16.899999999997817,16.25499999999738,16.685000000004948]",12,
-1,-1,RDK,74,19480,0.0-1.0-73.0,FALSE,"a,l",a,200,TRUE,200,1,180,0.5,2,-1,1,600,400,white,gray,3,2,2,16.68875,"[17.020000000004075,16.599999999994907,16.7300000000032,16.510000000002037,16.95999999999549,16.725000000002183,16.540000000000873,16.705000000001746,16.604999999995925,16.715000000003783,16.669999999998254,16.485000000000582]",12,
-1,-1,RDK,75,19698,0.0-1.0-74.0,FALSE,"a,l",l,200,TRUE,200,1,0,0.5,2,-1,1,600,400,white,gray,3,2,2,16.695,"[17.11999999999898,16.375,17.470000000001164,15.864999999997963,16.820000000003347,16.82499999999709,16.460000000002765,17.414999999997235,16.099999999998545,16.525000000001455,16.635000000002037,16.729999999999563]",12,
-1,-1,RDK,76,19914,0.0-1.0-75.0,FALSE,"a,l",a,200,TRUE,200,1,180,0.5,2,-1,1,600,400,white,gray,3,2,2,16.6925,"[16.93000000000029,16.68499999999767,17.710000000002765,15.770000000000437,16.43000000000029,16.735000000000582,16.689999999995052,16.765000000003056,16.614999999997963,17.090000000000146,16.25,16.640000000003056]",12,
-1,-1,RDK,77,20130,0.0-1.0-76.0,FALSE,"a,l",l,200,TRUE,200,1,0,0.5,2,-1,1,600,400,white,gray,3,2,2,16.59916667,"[15.930000000000291,16.68999999999869,16.514999999999418,17.650000000001455,16.12999999999738,16.3650000000016,16.660000000003492,16.614999999997963,16.659999999999854,16.780000000002474,16.539999999997235,16.654999999998836]",12,
-1,-1,RDK,78,20348,0.0-1.0-77.0,FALSE,"a,l",l,200,TRUE,200,1,0,0.5,2,-1,1,600,400,white,gray,3,2,2,16.63458333,"[16.340000000000146,16.55500000000029,17.36999999999898,15.930000000000291,16.625,16.760000000002037,16.51499999999578,17.639999999999418,15.965000000003783,16.539999999997235,16.61999999999898,16.75500000000102]",12,
-1,-1,RDK,79,20565,0.0-1.0-78.0,FALSE,"a,l",a,200,TRUE,200,1,180,0.5,2,-1,1,600,400,white,gray,3,2,2,16.7075,"[17.525000000001455,16.149999999997817,16.915000000000873,16.524999999997817,16.580000000001746,16.81500000000233,16.539999999997235,16.669999999998254,17.375,16.075000000000728,16.8650000000016,16.45499999999811]",12,
-1,-1,RDK,80,20780,0.0-1.0-79.0,FALSE,"a,l",l,200,TRUE,200,1,0,0.5,2,-1,1,600,400,white,gray,3,2,2,16.68875,"[17.049999999999272,16.42500000000291,16.56999999999971,17.6150000000016,15.874999999996362,16.6150000000016,16.68000000000029,16.875,16.594999999997526,16.81500000000233,16.854999999999563,16.294999999998254]",12,
-1,-1,RDK,81,20997,0.0-1.0-80.0,FALSE,"a,l",l,200,TRUE,200,1,0,0.5,2,-1,1,600,400,white,gray,3,2,2,16.69583333,"[17.034999999999854,16.535000000003492,16.700000000000728,16.664999999997235,16.524999999997817,17.340000000003783,16.304999999996653,17.29500000000189,16.104999999999563,16.515000000003056,16.604999999995925,16.725000000002183]",12,
-1,-1,RDK,82,21215,0.0-1.0-81.0,FALSE,"a,l",a,200,TRUE,200,1,180,0.5,2,-1,1,600,400,white,gray,3,2,2,16.70583333,"[17.034999999999854,16.835000000002765,16.850000000002183,16.484999999996944,16.595000000001164,16.6150000000016,16.714999999996508,16.665000000000873,16.81499999999869,16.625000000003638,16.524999999997817,16.709999999999127]",12,
-1,-1,RDK,83,21431,0.0-1.0-82.0,FALSE,"a,l",a,200,TRUE,200,1,180,0.5,2,-1,1,600,400,white,gray,3,2,2,16.71333333,"[17.06499999999869,16.55999999999767,16.700000000000728,17.485000000000582,16.020000000000437,16.81500000000233,16.584999999999127,16.7599999999984,16.409999999999854,16.705000000001746,16.604999999999563,16.849999999998545]",12,
-1,-1,RDK,84,21648,0.0-1.0-83.0,FALSE,"a,l",l,200,TRUE,200,1,0,0.5,2,-1,1,600,400,white,gray,3,2,2,16.65166667,"[16.55500000000029,16.395000000000437,16.82999999999811,16.660000000003492,16.63999999999578,17.37000000000262,15.919999999998254,17.340000000003783,17.08499999999549,15.605000000003201,16.654999999998836,16.764999999999418]",12,
-1,-1,RDK,85,21865,0.0-1.0-84.0,FALSE,"a,l",l,200,TRUE,200,1,0,0.5,2,-1,1,600,400,white,gray,3,2,2,16.71125,"[16.8650000000016,16.61999999999898,16.910000000003492,16.539999999997235,16.645000000000437,16.889999999999418,16.49499999999898,16.790000000000873,16.475000000002183,16.719999999997526,17.825000000000728,15.7599999999984]",12,
-1,-1,RDK,86,22081,0.0-1.0-85.0,FALSE,"a,l",l,200,TRUE,200,1,0,0.5,2,-1,1,600,400,white,gray,3,2,2,16.70708333,"[16.92000000000189,16.81999999999971,16.580000000001746,16.55999999999767,16.889999999999418,18.025000000001455,15.444999999999709,16.414999999997235,16.6150000000016,16.710000000002765,16.80999999999767,16.69499999999971]",12,
-1,-1,RDK,87,22298,0.0-1.0-86.0,FALSE,"a,l",a,200,TRUE,200,1,180,0.5,2,-1,1,600,400,white,gray,3,2,2,16.65625,"[16.68000000000393,16.364999999997963,16.81500000000233,16.69499999999971,16.649999999997817,16.790000000000873,16.55500000000029,16.7300000000032,16.714999999996508,16.520000000000437,16.724999999998545,16.635000000002037]",12,
-1,-1,RDK,88,22515,0.0-1.0-87.0,FALSE,"a,l",l,200,TRUE,200,1,0,0.5,2,-1,1,600,400,white,gray,3,2,2,16.70416667,"[17.514999999999418,16.234999999996944,16.6050000000032,16.575000000000728,16.62999999999738,16.780000000002474,16.599999999998545,16.794999999998254,17.154999999998836,16.00500000000102,17.889999999999418,15.665000000004511]",12,
-1,-1,RDK,89,22729,0.0-1.0-88.0,FALSE,"a,l",l,200,TRUE,200,1,0,0.5,2,-1,1,600,400,white,gray,3,2,2,16.67863636,"[16.770000000000437,16.674999999999272,16.834999999999127,17.1349999999984,16.150000000001455,16.650000000001455,16.68999999999869,16.590000000000146,16.62999999999738,16.854999999999563,16.48500000000422]",11,
-1,-1,RDK,90,22932,0.0-1.0-89.0,FALSE,"a,l",l,200,TRUE,200,1,0,0.5,2,-1,1,600,400,white,gray,3,2,2,16.57291667,"[15.674999999999272,16.4900000000016,16.749999999996362,16.520000000004075,16.70499999999811,16.705000000001746,16.679999999996653,17.61000000000422,16.220000000001164,16.20499999999811,16.584999999999127,16.729999999999563]",12,
-1,-1,RDK,91,23146,0.0-1.0-90.0,FALSE,"a,l",l,200,TRUE,200,1,0,0.5,2,-1,1,600,400,white,gray,3,2,2,16.73227273,"[16.950000000000728,16.595000000001164,16.784999999996217,17.260000000002037,16.11999999999898,16.580000000001746,16.68999999999869,16.729999999999563,16.68000000000029,16.68999999999869,16.975000000002183]",11,
-1,-1,RDK,92,23349,0.0-1.0-91.0,FALSE,"a,l",a,200,TRUE,200,1,180,0.5,2,-1,1,600,400,white,gray,3,2,2,16.56125,"[15.479999999999563,16.395000000000437,16.860000000000582,16.57999999999811,16.62000000000262,17.554999999996653,15.940000000002328,17.739999999997963,15.605000000003201,16.594999999997526,16.674999999999272,16.68999999999869]",12,
-1,-1,RDK,93,23565,0.0-1.0-92.0,FALSE,"a,l",a,200,TRUE,200,1,180,0.5,2,-1,1,600,400,white,gray,3,2,2,16.70458333,"[17.79500000000189,16.109999999996944,17.610000000000582,15.525000000001455,16.825000000000728,16.61999999999898,16.864999999997963,16.520000000000437,17.385000000002037,15.849999999998545,16.600000000002183,16.749999999996362]",12,
-1,-1,RDK,94,23782,0.0-1.0-93.0,FALSE,"a,l",l,200,TRUE,200,1,0,0.5,2,-1,1,600,400,white,gray,3,2,2,16.70708333,"[17.159999999999854,16.54500000000189,16.649999999997817,17.655000000002474,15.819999999996071,16.700000000000728,16.580000000001746,16.659999999996217,16.80000000000291,16.664999999997235,16.55000000000291,16.700000000000728]",12,
-1,-1,RDK,95,23999,0.0-1.0-94.0,FALSE,"a,l",l,200,TRUE,200,1,0,0.5,2,-1,1,600,400,white,gray,3,2,2,16.64208333,"[16.395000000004075,17.18499999999767,16.090000000003783,16.659999999996217,16.610000000000582,16.725000000002183,16.764999999999418,16.715000000000146,16.714999999996508,16.650000000005093,16.479999999995925,16.715000000000146]",12,
-1,-1,RDK,96,24215,0.0-1.0-95.0,FALSE,"a,l",a,200,TRUE,200,1,180,0.5,2,-1,1,600,400,white,gray,3,2,2,16.70791667,"[17.104999999995925,16.725000000002183,17.989999999997963,15.319999999999709,16.540000000000873,16.864999999997963,16.43500000000131,16.790000000000873,16.540000000000873,17.18500000000131,16.465000000000146,16.534999999999854]",12,
-1,-1,RDK,97,24431,0.0-1.0-96.0,FALSE,"a,l",l,200,TRUE,200,1,0,0.5,2,-1,1,600,400,white,gray,3,2,2,16.68833333,"[16.974999999998545,16.534999999999854,16.739999999997963,16.50500000000102,17.625,16.099999999998545,16.44499999999971,16.710000000002765,16.650000000001455,16.654999999998836,16.764999999999418,16.55500000000029]",12,
-1,-1,RDK,98,24649,0.0-1.0-97.0,FALSE,"a,l",l,200,TRUE,200,1,0,0.5,2,-1,1,600,400,white,gray,3,2,2,16.64333333,"[16.43000000000029,16.470000000001164,16.674999999999272,16.674999999999272,16.725000000002183,17.389999999999418,15.969999999997526,17.68000000000393,15.75,16.75,16.5,16.70499999999811]",12,
-1,-1,RDK,99,24866,0.0-1.0-98.0,FALSE,"a,l",a,200,TRUE,200,1,180,0.5,2,-1,1,600,400,white,gray,3,2,2,16.70375,"[17.12000000000262,16.715000000000146,17.474999999998545,15.709999999999127,16.55000000000291,16.69499999999971,16.825000000000728,16.654999999998836,16.610000000000582,16.915000000000873,16.51499999999578,16.660000000003492]",12,
-1,-1,RDK,100,25081,0.0-1.0-99.0,FALSE,"a,l",a,200,TRUE,200,1,180,0.5,2,-1,1,600,400,white,gray,3,2,2,16.68541667,"[17.040000000000873,16.720000000001164,16.61999999999898,17.549999999999272,16.084999999999127,16.56000000000131,16.450000000000728,16.639999999999418,16.774999999997817,16.585000000002765,16.720000000001164,16.479999999995925]",12,
-1,-1,RDK,101,25300,0.0-1.0-100.0,FALSE,"a,l",a,200,TRUE,200,1,180,0.5,2,-1,1,600,400,white,gray,3,2,2,16.68166667,"[16.87000000000262,16.479999999999563,16.714999999996508,16.630000000004657,16.659999999996217,16.88000000000102,16.514999999999418,17.485000000000582,16.020000000000437,16.590000000000146,16.575000000000728,16.7599999999984]",12,
-1,-1,RDK,102,25515,0.0-1.0-101.0,FALSE,"a,l",a,200,TRUE,200,1,180,0.5,2,-1,1,600,400,white,gray,3,2,2,16.68791667,"[17.6349999999984,15.7599999999984,17.840000000000146,16.165000000000873,16.49499999999898,16.235000000000582,16.735000000000582,16.700000000000728,17.429999999996653,15.945000000003347,17.93000000000029,15.3849999999984]",12,
-1,-1,RDK,103,25732,0.0-1.0-102.0,FALSE,"a,l",l,200,TRUE,200,1,0,0.5,2,-1,1,600,400,white,gray,3,2,2,16.70666667,"[17.110000000000582,16.625,16.63000000000102,17.830000000001746,15.56499999999869,16.715000000000146,16.61999999999898,16.649999999997817,16.86000000000422,16.524999999997817,16.6150000000016,16.735000000000582]",12,
-1,-1,RDK,104,25949,0.0-1.0-103.0,FALSE,"a,l",a,200,TRUE,200,1,180,0.5,2,-1,1,600,400,white,gray,3,2,2,16.68833333,"[17.0099999999984,16.604999999999563,16.62000000000262,16.624999999996362,16.790000000000873,16.600000000002183,16.700000000000728,16.794999999998254,16.80500000000029,16.450000000000728,16.57499999999709,16.685000000004948]",12,
-1,-1,RDK,105,26166,0.0-1.0-104.0,FALSE,"a,l",l,200,TRUE,200,1,0,0.5,2,-1,1,600,400,white,gray,3,2,2,16.70916667,"[17.43000000000029,16.104999999999563,16.909999999999854,16.5,16.625000000003638,16.649999999997817,16.68500000000131,16.724999999998545,16.635000000002037,16.86999999999898,16.575000000000728,16.799999999999272]",12,
-1,-1,RDK,106,26382,0.0-1.0-105.0,FALSE,"a,l",a,200,TRUE,200,1,180,0.5,2,-1,1,600,400,white,gray,3,2,2,16.68208333,"[16.799999999999272,16.614999999997963,16.790000000000873,17.55500000000029,15.794999999998254,16.799999999999272,16.530000000002474,16.764999999999418,16.669999999998254,16.535000000003492,16.705000000001746,16.624999999996362]",12,
-1,-1,RDK,107,26600,0.0-1.0-106.0,FALSE,"a,l",l,200,TRUE,200,1,0,0.5,2,-1,1,600,400,white,gray,3,2,2,16.70041667,"[17,16.674999999999272,16.645000000000437,16.68500000000131,16.610000000000582,16.70499999999811,16.49499999999898,16.970000000001164,16.625,16.770000000004075,16.484999999996944,16.739999999997963]",12,
-1,-1,RDK,108,26816,0.0-1.0-107.0,FALSE,"a,l",a,200,TRUE,200,1,180,0.5,2,-1,1,600,400,white,gray,3,2,2,16.71458333,"[17.68499999999767,16.150000000001455,16.75,16.56500000000233,16.709999999999127,18.1150000000016,15.099999999994907,16.80000000000291,17.2599999999984,16.00500000000102,17.520000000000437,15.915000000000873]",12,
-1,-1,RDK,109,27031,0.0-1.0-108.0,FALSE,"a,l",a,200,TRUE,200,1,180,0.5,2,-1,1,600,400,white,gray,3,2,2,16.705,"[16.974999999998545,16.635000000002037,16.81500000000233,17.374999999996362,15.985000000000582,17.970000000001164,15.360000000000582,16.75,16.520000000000437,16.665000000000873,16.70499999999811]",11,
-1,-1,RDK,110,27233,0.0-1.0-109.0,FALSE,"a,l",a,200,TRUE,200,1,180,0.5,2,-1,1,600,400,white,gray,3,2,2,16.61291667,"[16.169999999998254,16.575000000004366,16.49499999999898,16.80500000000029,16.63000000000102,16.654999999998836,16.75,16.580000000001746,16.74499999999898,16.70499999999811,16.67000000000189,16.575000000000728]",12,
-1,-1,RDK,111,27450,0.0-1.0-110.0,FALSE,"a,l",l,200,TRUE,200,1,0,0.5,2,-1,1,600,400,white,gray,3,2,2,16.715,"[17.114999999997963,16.520000000004075,16.599999999994907,16.900000000005093,16.654999999995198,17.090000000003783,16.154999999998836,16.735000000000582,16.529999999998836,16.75499999999738,16.720000000001164,16.80500000000029]",12,
-1,-1,RDK,112,27667,0.0-1.0-111.0,FALSE,"a,l",l,200,TRUE,200,1,0,0.5,2,-1,1,600,400,white,gray,3,2,2,16.70125,"[17.05500000000029,16.529999999998836,16.68000000000029,16.780000000002474,17.24499999999898,16.31499999999869,17.455000000001746,15.909999999999854,16.3949999999968,16.695000000003347,16.674999999999272,16.68000000000029]",12,
-1,-1,RDK,113,27883,0.0-1.0-112.0,FALSE,"a,l",a,200,TRUE,200,1,180,0.5,2,-1,1,600,400,white,gray,3,2,2,16.69791667,"[17.135000000005675,16.49499999999898,16.56999999999607,16.715000000003783,16.604999999995925,16.66500000000451,16.774999999997817,16.55500000000029,17.18999999999869,16.385000000002037,16.479999999999563,16.80500000000029]",12,
-1,-1,RDK,114,28100,0.0-1.0-113.0,FALSE,"a,l",l,200,TRUE,200,1,0,0.5,2,-1,1,600,400,white,gray,3,2,2,16.70375,"[17.200000000000728,16.534999999999854,16.584999999999127,16.830000000001746,16.68000000000029,16.739999999997963,16.625,16.710000000002765,16.3949999999968,17.235000000000582,16.114999999997963,16.79500000000189]",12,
-1,-1,RDK,115,28317,0.0-1.0-114.0,FALSE,"a,l",a,200,TRUE,200,1,180,0.5,2,-1,1,600,400,white,gray,3,2,2,16.68958333,"[16.860000000000582,16.80500000000029,16.595000000001164,16.610000000000582,17.414999999997235,16.049999999999272,16.7400000000016,16.599999999998545,16.715000000000146,16.400000000001455,16.80500000000029,16.68000000000029]",12,
-1,-1,RDK,116,28534,0.0-1.0-115.0,FALSE,"a,l",a,200,TRUE,200,1,180,0.5,2,-1,1,600,400,white,gray,3,2,2,16.62083333,"[16.275000000001455,16.720000000001164,16.469999999997526,16.604999999999563,16.7400000000016,16.784999999999854,16.510000000002037,17.534999999996217,15.850000000002183,16.69499999999971,16.854999999999563,16.409999999999854]",12,
-1,-1,RDK,117,28748,0.0-1.0-116.0,FALSE,"a,l",l,200,TRUE,200,1,0,0.5,2,-1,1,600,400,white,gray,3,2,2,16.68772727,"[17.114999999997963,16.475000000002183,16.479999999999563,16.82999999999811,16.985000000000582,16.354999999999563,16.529999999998836,16.830000000001746,16.790000000000873,16.604999999999563,16.56999999999971]",11,
-1,-1,RDK,118,28950,0.0-1.0-117.0,FALSE,"a,l",l,200,TRUE,200,1,0,0.5,2,-1,1,600,400,white,gray,3,2,2,16.54583333,"[15.299999999999272,16.459999999999127,16.760000000002037,16.659999999996217,16.67500000000291,17.50500000000102,15.909999999996217,17.30500000000029,16.104999999999563,16.584999999999127,16.640000000003056,16.645000000000437]",12,
-1,-1,RDK,119,29167,0.0-1.0-118.0,FALSE,"a,l",l,200,TRUE,200,1,0,0.5,2,-1,1,600,400,white,gray,3,2,2,16.70333333,"[17.030000000002474,16.6349999999984,16.7599999999984,16.645000000000437,16.67000000000189,16.81000000000131,16.469999999997526,16.715000000000146,17.610000000000582,15.81000000000131,16.729999999995925,16.55500000000029]",12,
-1,-1,RDK,120,29384,0.0-1.0-119.0,FALSE,"a,l",l,200,TRUE,200,1,0,0.5,2,-1,1,600,400,white,gray,3,2,2,16.70125,"[17.090000000000146,16.580000000001746,16.749999999996362,17.485000000000582,16.31499999999869,16.225000000002183,16.534999999999854,16.610000000000582,16.889999999999418,16.640000000003056,16.924999999995634,16.37000000000262]",12,
-1,-1,RDK,121,29600,0.0-1.0-120.0,FALSE,"a,l",a,200,TRUE,200,1,180,0.5,2,-1,1,600,400,white,gray,3,2,2,16.69791667,"[17.044999999998254,16.709999999999127,16.48500000000422,16.674999999999272,16.709999999999127,16.645000000000437,16.7599999999984,16.780000000002474,16.81999999999607,16.41500000000451,16.739999999997963,16.590000000000146]",12,
-1,-1,RDK,122,29817,0.0-1.0-121.0,FALSE,"a,l",l,200,TRUE,200,1,0,0.5,2,-1,1,600,400,white,gray,3,2,2,16.69958333,"[17.025000000001455,16.7599999999984,17.649999999997817,15.575000000004366,16.625,16.774999999997817,16.655000000002474,16.714999999996508,16.525000000001455,16.93000000000029,16.56000000000131,16.599999999998545]",12,
-1,-1,RDK,123,30034,0.0-1.0-122.0,FALSE,"a,l",a,200,TRUE,200,1,180,0.5,2,-1,1,600,400,white,gray,3,2,2,16.77333333,"[17.05500000000029,16.534999999999854,16.820000000003347,16.409999999996217,16.895000000000437,16.950000000000728,16.354999999999563,16.709999999999127,16.68999999999869,16.67500000000291,30.289999999997235,3.8950000000004366]",12,
-1,-1,RDK,124,30251,0.0-1.0-123.0,FALSE,"a,l",a,200,TRUE,200,1,180,0.5,2,-1,1,600,400,white,gray,3,2,2,16.65041667,"[16.340000000000146,16.515000000003056,16.790000000000873,17.74499999999898,15.600000000002183,16.81999999999971,17.779999999995198,15.605000000003201,16.529999999998836,16.62999999999738,16.620000000006257,16.82999999999811]",12,
-1,-1,RDK,125,30467,0.0-1.0-124.0,FALSE,"a,l",a,200,TRUE,200,1,180,0.5,2,-1,1,600,400,white,gray,3,2,2,16.69541667,"[16.8849999999984,16.770000000000437,16.770000000000437,17.24499999999898,15.885000000002037,16.610000000000582,16.784999999996217,16.67000000000189,16.63000000000102,17.799999999999272,15.650000000001455,16.6449999999968]",12,
-1,-1,RDK,126,30684,0.0-1.0-125.0,FALSE,"a,l",l,200,TRUE,200,1,0,0.5,2,-1,1,600,400,white,gray,3,2,2,16.71083333,"[17.114999999997963,16.500000000003638,16.724999999994907,16.725000000002183,17.150000000001455,16.544999999998254,16.340000000000146,16.735000000000582,16.604999999999563,16.660000000003492,17.599999999994907,15.830000000001746]",12,
-1,-1,RDK,127,30901,0.0-1.0-126.0,FALSE,"a,l",l,200,TRUE,200,1,0,0.5,2,-1,1,600,400,white,gray,3,2,2,16.70333333,"[17,16.61999999999898,16.705000000001746,16.679999999996653,16.645000000000437,16.760000000002037,16.604999999995925,16.67500000000291,16.68999999999869,16.660000000003492,16.63999999999578,16.760000000002037]",12,
-1,-1,RDK,128,31118,0.0-1.0-127.0,FALSE,"a,l",a,200,TRUE,200,1,180,0.5,2,-1,1,600,400,white,gray,3,2,2,16.65833333,"[16.409999999996217,16.695000000003347,16.654999999998836,16.75500000000102,16.584999999999127,16.81500000000233,16.524999999997817,16.75499999999738,16.725000000002183,17.75500000000102,15.670000000001892,16.55500000000029]",12,
-1,-1,RDK,129,31335,0.0-1.0-128.0,FALSE,"a,l",a,200,TRUE,200,1,180,0.5,2,-1,1,600,400,white,gray,3,2,2,16.69958333,"[17.159999999999854,16.43499999999767,16.834999999999127,16.590000000000146,17.460000000002765,15.81000000000131,16.774999999997817,16.625,16.7400000000016,16.739999999997963,16.664999999997235,16.560000000004948]",12,
-1,-1,RDK,130,31551,0.0-1.0-129.0,FALSE,"a,l",l,200,TRUE,200,1,0,0.5,2,-1,1,600,400,white,gray,3,2,2,16.70041667,"[17.13499999999476,17.87000000000262,15.565000000002328,16.520000000000437,16.70999999999549,17.75500000000102,15.700000000000728,16.599999999998545,16.539999999997235,16.92500000000291,16.520000000000437,16.56499999999869]",12,
-1,-1,RDK,131,31769,0.0-1.0-130.0,FALSE,"a,l",l,200,TRUE,200,1,0,0.5,2,-1,1,600,400,white,gray,3,2,2,16.82208333,"[18.1150000000016,15.555000000000291,16.845000000001164,16.57499999999709,16.66500000000451,16.69999999999709,16.849999999998545,16.619999999995343,16.580000000005384,16.88999999999578,16.620000000006257,17.849999999994907]",12,
-1,-1,RDK,132,31984,0.0-1.0-131.0,FALSE,"a,l",l,200,TRUE,200,1,0,0.5,2,-1,1,600,400,white,gray,3,2,2,16.69291667,"[17.150000000001455,16.584999999999127,16.729999999995925,16.55000000000291,16.860000000000582,16.514999999999418,16.54500000000189,16.6349999999984,16.7599999999984,16.63000000000102,17.38000000000102,15.974999999998545]",12,
-1,-1,RDK,133,32201,0.0-1.0-132.0,FALSE,"a,l",a,200,TRUE,200,1,180,0.5,2,-1,1,600,400,white,gray,3,2,2,16.63375,"[17.270000000004075,15.49500000000262,16.649999999997817,16.649999999997817,16.775000000001455,16.7599999999984,16.739999999997963,17.7300000000032,15.37000000000262,16.999999999992724,16.42000000000553,16.74500000000262]",12,
-1,-1,RDK,134,32418,0.0-1.0-133.0,FALSE,"a,l",a,200,TRUE,200,1,180,0.5,2,-1,1,600,400,white,gray,3,2,2,16.70416667,"[17.05500000000029,16.75999999999476,16.695000000006985,16.439999999995052,16.94499999999971,16.470000000001164,16.639999999999418,16.760000000002037,17.590000000003783,16.144999999989523,16.375000000007276,16.57499999999709]",12,
-1,-1,RDK,135,32634,0.0-1.0-134.0,FALSE,"a,l",l,200,TRUE,200,1,0,0.5,2,-1,1,600,400,white,gray,3,2,2,16.69333333,"[16.94499999999971,16.49500000000262,16.7300000000032,17.544999999998254,15.790000000000873,16.80500000000029,16.64999999999418,16.525000000001455,16.720000000001164,16.650000000001455,16.724999999998545,16.739999999997963]",12,
-1,-1,RDK,136,32852,0.0-1.0-135.0,FALSE,"a,l",a,200,TRUE,200,1,180,0.5,2,-1,1,600,400,white,gray,3,2,2,16.69541667,"[17.029999999998836,16.514999999999418,16.80999999999767,16.535000000003492,16.819999999992433,16.54500000000553,17.014999999999418,17.459999999999127,15.785000000003492,16.55999999999767,16.69000000000233,16.57999999999447]",12,
-1,-1,RDK,137,33068,0.0-1.0-136.0,FALSE,"a,l",l,200,TRUE,200,1,0,0.5,2,-1,1,600,400,white,gray,3,2,2,16.69,"[17.639999999999418,15.985000000000582,17.599999999998545,15.694999999999709,16.590000000003783,16.729999999995925,16.650000000001455,16.80500000000029,16.75499999999738,16.735000000007858,16.469999999993888,16.625]",12,
-1,-1,RDK,138,33285,0.0-1.0-137.0,FALSE,"a,l",a,200,TRUE,200,1,180,0.5,2,-1,1,600,400,white,gray,3,2,2,16.7,"[17.015000000006694,16.62000000000262,16.814999999987776,16.360000000007858,16.909999999996217,16.590000000003783,16.714999999996508,16.56999999999971,16.760000000002037,16.665000000000873,16.619999999995343,16.760000000002037]",12,
-1,-1,RDK,139,33502,0.0-1.0-138.0,FALSE,"a,l",l,200,TRUE,200,1,0,0.5,2,-1,1,600,400,white,gray,3,2,2,16.71375,"[17.11500000000524,16.424999999995634,16.625,16.68499999999767,16.779999999998836,16.875000000007276,16.43000000000029,16.709999999999127,16.69000000000233,16.794999999990978,16.764999999999418,16.67000000000553]",12,
-1,-1,RDK,140,33718,0.0-1.0-139.0,FALSE,"a,l",l,200,TRUE,200,1,0,0.5,2,-1,1,600,400,white,gray,3,2,2,16.68333333,"[16.924999999995634,16.500000000007276,16.964999999996508,16.599999999998545,16.68499999999767,16.610000000000582,17.81500000000233,15.55000000000291,16.669999999998254,16.554999999993015,17.3550000000032,15.97000000000844]",12,
-1,-1,RDK,141,33934,0.0-1.0-140.0,FALSE,"a,l",l,200,TRUE,200,1,0,0.5,2,-1,1,600,400,white,gray,3,2,2,16.68416667,"[17.029999999998836,16.479999999995925,16.700000000004366,16.719999999993888,16.92000000000553,16.360000000000582,16.74500000000262,16.929999999993015,18.334999999999127,14.67000000000553,16.604999999995925,16.715000000003783]",12,
-1,-1,RDK,142,34152,0.0-1.0-141.0,FALSE,"a,l",a,200,TRUE,200,1,180,0.5,2,-1,1,600,400,white,gray,3,2,2,16.68708333,"[16.989999999997963,16.654999999998836,16.49500000000262,16.739999999997963,16.81999999999971,17.005000000004657,16.249999999992724,16.720000000001164,16.6050000000032,16.630000000004657,16.720000000001164,16.614999999997963]",12,
-1,-1,RDK,143,34369,0.0-1.0-142.0,FALSE,"a,l",l,200,TRUE,200,1,0,0.5,2,-1,1,600,400,white,gray,3,2,2,16.72458333,"[17.44000000000233,16.334999999999127,16.685000000004948,16.62999999999738,16.674999999995634,16.905000000006112,16.595000000001164,16.52499999999418,16.62000000000262,16.685000000004948,16.75999999999476,16.840000000003783]",12,
-1,-1,RDK,144,34583,0.0-1.0-143.0,FALSE,"a,l",l,200,TRUE,200,1,0,0.5,2,-1,1,600,400,white,gray,3,2,2,16.69727273,"[17.014999999999418,16.714999999996508,16.66500000000815,17.330000000001746,16.119999999988067,17.875000000007276,15.77499999999418,16.080000000009022,16.689999999995052,16.780000000006112,16.624999999992724]",11,
-1,-1,RDK,145,34786,0.0-1.0-144.0,FALSE,"a,l",a,200,TRUE,200,1,180,0.5,2,-1,1,600,400,white,gray,3,2,2,16.63083333,"[16.095000000001164,16.685000000004948,16.68499999999767,16.584999999999127,16.75499999999738,16.610000000000582,16.864999999997963,17.330000000001746,15.79500000000553,16.739999999997963,16.604999999995925,16.820000000006985]",12,
-1,-1,RDK,146,35003,0.0-1.0-145.0,FALSE,"a,l",l,200,TRUE,200,1,0,0.5,2,-1,1,600,400,white,gray,3,2,2,16.70458333,"[17.974999999998545,15.650000000001455,16.590000000003783,16.674999999995634,16.679999999993015,16.655000000006112,16.785000000003492,16.70499999999447,16.695000000006985,16.604999999995925,16.669999999998254,16.770000000004075]",12,
-1,-1,RDK,147,35219,0.0-1.0-146.0,FALSE,"a,l",a,200,TRUE,200,1,180,0.5,2,-1,1,600,400,white,gray,3,2,2,16.69458333,"[17.465000000003783,16.19999999999709,16.604999999995925,16.62000000000262,16.72500000000582,16.769999999989523,16.935000000004948,16.360000000000582,16.62000000000262,16.68499999999767,16.75,16.599999999998545]",12,
-1,-1,RDK,148,35435,0.0-1.0-147.0,FALSE,"a,l",a,200,TRUE,200,1,180,0.5,2,-1,1,600,400,white,gray,3,2,2,16.69791667,"[17.005000000004657,17.494999999995343,15.75,16.69999999999709,16.710000000006403,16.724999999998545,16.57499999999709,16.529999999998836,16.760000000002037,17.52499999999418,15.855000000003201,16.74500000000262]",12,
-1,-1,RDK,149,35653,0.0-1.0-148.0,FALSE,"a,l",l,200,TRUE,200,1,0,0.5,2,-1,1,600,400,white,gray,3,2,2,16.70916667,"[16.929999999993015,16.685000000004948,16.599999999998545,16.825000000004366,16.599999999998545,16.974999999998545,16.49500000000262,17.93000000000029,15.385000000002037,16.694999999992433,16.630000000004657,16.75999999999476]",12,
-1,-1,RDK,150,35869,0.0-1.0-149.0,FALSE,"a,l",l,200,TRUE,200,1,0,0.5,2,-1,1,600,400,white,gray,3,2,2,16.68666667,"[16.905000000006112,16.599999999998545,16.75,16.515000000006694,16.964999999996508,16.354999999995925,17.029999999998836,16.515000000006694,16.45999999999185,16.755000000004657,16.619999999995343,16.770000000004075]",12,
-1,-1,RDK,151,36086,0.0-1.0-150.0,FALSE,"a,l",l,200,TRUE,200,1,0,0.5,2,-1,1,600,400,white,gray,3,2,2,16.71,"[16.974999999998545,16.544999999998254,16.81999999999971,16.660000000003492,16.635000000002037,16.914999999993597,16.56500000000233,16.590000000003783,16.684999999990396,16.625000000007276,16.664999999993597,16.840000000003783]",12,
-1,-1,RDK,152,36303,0.0-1.0-151.0,FALSE,"a,l",l,200,TRUE,200,1,0,0.5,2,-1,1,600,400,white,gray,3,2,2,16.7175,"[17.794999999998254,15.865000000005239,17.644999999989523,15.825000000004366,17.17500000000291,16.285000000003492,16.574999999989814,16.515000000006694,16.95499999999447,16.525000000001455,17.17500000000291,16.275000000001455]",12,
-1,-1,RDK,153,36519,0.0-1.0-152.0,FALSE,"a,l",a,200,TRUE,200,1,180,0.5,2,-1,1,600,400,white,gray,3,2,2,16.5925,"[15.889999999999418,16.555000000007567,16.62999999999738,16.594999999993888,16.785000000003492,16.705000000001746,16.57499999999709,16.835000000006403,16.525000000001455,16.610000000000582,16.84999999999127,16.55500000000029]",12,
-1,-1,RDK,154,36736,0.0-1.0-153.0,FALSE,"a,l",a,200,TRUE,200,1,180,0.5,2,-1,1,600,400,white,gray,3,2,2,16.70875,"[17.109999999993306,16.69000000000233,16.735000000000582,17.220000000001164,16.25,16.45499999999447,16.6050000000032,16.734999999993306,16.520000000004075,16.900000000001455,16.744999999995343,16.54000000000815]",12,
-1,-1,RDK,155,36953,0.0-1.0-154.0,FALSE,"a,l",a,200,TRUE,200,1,180,0.5,2,-1,1,600,400,white,gray,3,2,2,16.71,"[17.139999999999418,16.5199999999968,16.739999999997963,16.505000000004657,16.86500000000524,16.819999999992433,16.474999999998545,16.80000000000291,16.549999999995634,16.860000000000582,17.3550000000032,15.889999999999418]",12,
-1,-1,RDK,156,37170,0.0-1.0-155.0,FALSE,"a,l",a,200,TRUE,200,1,180,0.5,2,-1,1,600,400,white,gray,3,2,2,16.6425,"[16.47000000000844,17.314999999995052,15.75499999999738,16.604999999995925,17.520000000004075,16.030000000006112,16.749999999992724,17.360000000000582,15.815000000002328,16.75,16.654999999998836,16.685000000004948]",12,
-1,-1,RDK,157,37387,0.0-1.0-156.0,FALSE,"a,l",l,200,TRUE,200,1,0,0.5,2,-1,1,600,400,white,gray,3,2,2,16.70666667,"[17.830000000001746,15.819999999999709,16.589999999996508,16.909999999996217,18.195000000006985,15.264999999999418,16.619999999995343,16.55000000000291,16.650000000001455,16.935000000004948,16.469999999993888,16.6449999999968]",12,
-1,-1,RDK,158,37603,0.0-1.0-157.0,FALSE,"a,l",a,200,TRUE,200,1,180,0.5,2,-1,1,600,400,white,gray,3,2,2,16.69375,"[16.734999999993306,16.67500000000291,16.714999999996508,16.68000000000029,16.75,16.700000000004366,16.62999999999738,16.665000000000873,16.714999999996508,16.560000000004948,16.715000000003783,16.784999999996217]",12,
-1,-1,RDK,159,37820,0.0-1.0-158.0,FALSE,"a,l",a,200,TRUE,200,1,180,0.5,2,-1,1,600,400,white,gray,3,2,2,16.69708333,"[17.994999999995343,15.67500000000291,16.619999999995343,17.625,15.630000000004657,17.80999999999767,15.569999999992433,16.84500000000844,16.734999999993306,16.630000000004657,16.7699999999968,16.460000000006403]",12,
-1,-1,RDK,160,38036,0.0-1.0-159.0,FALSE,"a,l",a,200,TRUE,200,1,180,0.5,2,-1,1,600,400,white,gray,3,2,2,16.70625,"[17.17500000000291,16.580000000001746,17.514999999999418,15.855000000003201,16.729999999995925,16.614999999997963,16.640000000006694,16.81500000000233,16.62999999999738,16.599999999998545,16.6449999999968,16.67500000000291]",12,
-1,-1,RDK,161,38253,0.0-1.0-160.0,FALSE,"a,l",l,200,TRUE,200,1,0,0.5,2,-1,1,600,400,white,gray,3,2,2,16.70541667,"[16.85000000000582,16.614999999990687,16.820000000006985,17.665000000000873,15.639999999999418,16.845000000001164,16.654999999998836,16.544999999998254,16.770000000004075,16.679999999993015,16.67000000000553,16.709999999999127]",12,
-1,-1,RDK,162,38471,0.0-1.0-161.0,FALSE,"a,l",a,200,TRUE,200,1,180,0.5,2,-1,1,600,400,white,gray,3,2,2,16.71166667,"[16.89500000001135,16.724999999998545,16.74500000000262,16.45999999999185,16.770000000004075,16.62999999999738,16.56999999999971,16.904999999998836,16.69499999999971,16.714999999996508,17.75,15.680000000007567]",12,
-1,-1,RDK,163,38687,0.0-1.0-162.0,FALSE,"a,l",a,200,TRUE,200,1,180,0.5,2,-1,1,600,400,white,gray,3,2,2,16.69375,"[16.909999999996217,16.585000000006403,17.12000000000262,16.32499999999709,17.474999999998545,15.955000000001746,17.025000000001455,16.389999999992142,17.230000000010477,15.969999999993888,17.479999999995925,15.860000000007858]",12,
-1,-1,RDK,164,38901,0.0-1.0-163.0,FALSE,"a,l",l,200,TRUE,200,1,0,0.5,2,-1,1,600,400,white,gray,3,2,2,16.72818182,"[17.020000000004075,16.734999999993306,16.62000000000262,17.62999999999738,15.75499999999738,17.520000000004075,15.854999999995925,16.595000000001164,16.685000000004948,16.664999999993597,16.930000000007567]",11,
-1,-1,RDK,165,39104,0.0-1.0-164.0,FALSE,"a,l",l,200,TRUE,200,1,0,0.5,2,-1,1,600,400,white,gray,3,2,2,16.61583333,"[15.930000000007567,16.80500000000029,16.57999999999447,17.165000000000873,16.029999999998836,16.710000000006403,16.739999999997963,16.59999999999127,16.930000000007567,16.494999999995343,16.610000000000582,16.79500000000553]",12,
-1,-1,RDK,166,39320,0.0-1.0-165.0,FALSE,"a,l",l,200,TRUE,200,1,0,0.5,2,-1,1,600,400,white,gray,3,2,2,16.71083333,"[17.145000000004075,16.595000000001164,16.69499999999971,16.889999999999418,16.520000000004075,16.734999999993306,16.67500000000291,16.5,16.639999999999418,17.18000000000029,16.13499999999476,16.820000000006985]",12,
-1,-1,RDK,167,39537,0.0-1.0-166.0,FALSE,"a,l",a,200,TRUE,200,1,180,0.5,2,-1,1,600,400,white,gray,3,2,2,16.71166667,"[16.97499999999127,16.705000000001746,16.650000000001455,16.665000000000873,16.660000000003492,16.74500000000262,16.70499999999447,16.744999999995343,16.680000000007567,16.69999999999709,16.474999999998545,16.834999999999127]",12,
-1,-1,RDK,168,39754,0.0-1.0-167.0,FALSE,"a,l",l,200,TRUE,200,1,0,0.5,2,-1,1,600,400,white,gray,3,2,2,16.63625,"[16.255000000004657,17.57499999999709,16.700000000004366,16.55999999999767,15.590000000003783,16.764999999999418,16.7300000000032,17.299999999995634,16.010000000002037,16.914999999993597,16.505000000004657,16.729999999995925]",12,
-1,-1,RDK,169,39971,0.0-1.0-168.0,FALSE,"a,l",l,200,TRUE,200,1,0,0.5,2,-1,1,600,400,white,gray,3,2,2,16.71416667,"[16.94499999999971,16.814999999995052,16.68000000000029,16.610000000000582,16.729999999995925,16.525000000001455,16.75499999999738,16.875000000007276,16.44999999999709,16.665000000000873,17.55500000000029,15.965000000003783]",12,
-1,-1,RDK,170,40187,0.0-1.0-169.0,FALSE,"a,l",l,200,TRUE,200,1,0,0.5,2,-1,1,600,400,white,gray,3,2,2,16.70375,"[16.890000000006694,16.75499999999738,16.64999999999418,16.635000000002037,16.755000000004657,16.374999999992724,16.870000000009895,16.88499999999476,16.665000000000873,16.4800000000032,16.610000000000582,16.874999999992724]",12,
-1,-1,RDK,171,40404,0.0-1.0-170.0,FALSE,"a,l",a,200,TRUE,200,1,180,0.5,2,-1,1,600,400,white,gray,3,2,2,16.65291667,"[16.460000000006403,16.584999999999127,16.735000000000582,16.63499999999476,16.595000000001164,16.705000000001746,16.660000000003492,16.70499999999447,16.764999999999418,16.910000000003492,16.514999999999418,16.564999999995052]",12,
-1,-1,RDK,172,40621,0.0-1.0-171.0,FALSE,"a,l",l,200,TRUE,200,1,0,0.5,2,-1,1,600,400,white,gray,3,2,2,16.6875,"[16.934999999990396,16.630000000011933,17.429999999993015,16.029999999998836,17.820000000006985,15.409999999996217,16.609999999993306,16.800000000010186,16.609999999993306,16.705000000001746,17.160000000003492,16.109999999993306]",12,
-1,-1,RDK,173,40838,0.0-1.0-172.0,FALSE,"a,l",a,200,TRUE,200,1,180,0.5,2,-1,1,600,400,white,gray,3,2,2,16.63833333,"[16.099999999998545,16.689999999995052,16.74500000000262,16.56500000000233,16.724999999998545,16.60000000000582,16.749999999992724,16.830000000009022,16.554999999993015,16.705000000001746,16.665000000000873,16.7300000000032]",12,
-1,-1,RDK,174,41054,0.0-1.0-173.0,FALSE,"a,l",a,200,TRUE,200,1,180,0.5,2,-1,1,600,400,white,gray,3,2,2,16.69,"[17.995000000009895,15.544999999990978,17.56999999999971,16.125000000007276,16.339999999996508,16.61500000000524,16.669999999990978,17.150000000001455,16.19499999999971,16.72000000000844,16.72499999999127,16.62999999999738]",12,
-1,-1,RDK,175,41271,0.0-1.0-174.0,FALSE,"a,l",a,200,TRUE,200,1,180,0.5,2,-1,1,600,400,white,gray,3,2,2,16.72291667,"[17.07499999999709,16.849999999998545,16.660000000003492,16.595000000001164,16.659999999996217,17.040000000000873,16.510000000002037,16.62999999999738,16.869999999995343,16.435000000004948,16.7300000000032,16.619999999995343]",12,
-1,-1,RDK,176,41487,0.0-1.0-175.0,FALSE,"a,l",a,200,TRUE,200,1,180,0.5,2,-1,1,600,400,white,gray,3,2,2,16.64458333,"[16.060000000004948,16.68000000000029,16.719999999993888,16.80000000000291,16.465000000003783,16.919999999998254,16.485000000000582,17.69999999999709,15.794999999998254,16.674999999995634,16.74000000000524,16.69499999999971]",12,
-1,-1,RDK,177,41704,0.0-1.0-176.0,FALSE,"a,l",l,200,TRUE,200,1,0,0.5,2,-1,1,600,400,white,gray,3,2,2,16.67958333,"[16.860000000000582,16.49500000000262,16.734999999993306,16.60000000000582,16.659999999996217,17.2300000000032,16.345000000001164,17.694999999992433,15.529999999998836,16.61500000000524,16.744999999995343,16.645000000004075]",12,
-1,-1,RDK,178,41922,0.0-1.0-177.0,FALSE,"a,l",a,200,TRUE,200,1,180,0.5,2,-1,1,600,400,white,gray,3,2,2,16.69916667,"[17.154999999998836,17.87000000000262,15.279999999998836,16.6449999999968,16.840000000003783,16.68499999999767,16.5,16.830000000001746,16.714999999996508,16.505000000004657,17.109999999993306,16.25499999999738]",12,
-1,-1,RDK,179,42138,0.0-1.0-178.0,FALSE,"a,l",l,200,TRUE,200,1,0,0.5,2,-1,1,600,400,white,gray,3,2,2,16.7125,"[17.035000000003492,16.584999999999127,16.669999999998254,16.755000000004657,16.619999999995343,17.43000000000029,16.005000000004657,17.544999999998254,15.864999999997963,16.869999999995343,16.60000000000582,16.56999999999971]",12,
-1,-1,RDK,180,42354,0.0-1.0-179.0,FALSE,"a,l",a,200,TRUE,200,1,180,0.5,2,-1,1,600,400,white,gray,3,2,2,16.69625,"[16.90999999998894,16.635000000002037,17.710000000006403,15.644999999996799,16.62000000000262,16.674999999995634,16.590000000003783,16.720000000001164,16.764999999999418,16.664999999993597,17.310000000004948,16.109999999993306]",12,
-1,-1,RDK,181,42570,0.0-1.0-180.0,FALSE,"a,l",a,200,TRUE,200,1,180,0.5,2,-1,1,600,400,white,gray,3,2,2,16.60875,"[15.825000000011642,16.669999999990978,16.62000000000262,16.645000000004075,16.794999999998254,16.619999999995343,16.80000000000291,16.50999999999476,16.67500000000291,16.875,16.6050000000032,16.665000000000873]",12,
-1,-1,RDK,182,42789,0.0-1.0-181.0,FALSE,"a,l",a,200,TRUE,200,1,180,0.5,2,-1,1,600,400,white,gray,3,2,2,16.68791667,"[17.270000000004075,16.374999999992724,16.570000000006985,17.049999999995634,16.20499999999447,16.880000000004657,16.459999999999127,16.965000000003783,16.705000000001746,16.50999999999476,16.639999999999418,16.625]",12,
-1,-1,RDK,183,43004,0.0-1.0-182.0,FALSE,"a,l",l,200,TRUE,200,1,0,0.5,2,-1,1,600,400,white,gray,3,2,2,16.70083333,"[17.110000000000582,17.450000000004366,15.944999999992433,16.570000000006985,16.64999999999418,16.654999999998836,16.540000000000873,17.875000000007276,16.18499999999767,16.05999999999767,17.489999999997963,15.880000000004657]",12,
-1,-1,RDK,184,43219,0.0-1.0-183.0,FALSE,"a,l",l,200,TRUE,200,1,0,0.5,2,-1,1,600,400,white,gray,3,2,2,16.72136364,"[20.104999999995925,13.540000000000873,16.739999999997963,16.69000000000233,16.93499999999767,17.805000000007567,15.319999999992433,17.955000000001746,15.489999999997963,16.4800000000032,16.875]",11,
-1,-1,RDK,185,43422,0.0-1.0-184.0,FALSE,"a,l",l,200,TRUE,200,1,0,0.5,2,-1,1,600,400,white,gray,3,2,2,16.56833333,"[15.549999999995634,16.520000000004075,16.674999999995634,16.739999999997963,16.62000000000262,16.750000000007276,16.749999999992724,16.69999999999709,16.685000000004948,16.514999999999418,16.69499999999971,16.62000000000262]",12,
-1,-1,RDK,186,43639,0.0-1.0-185.0,FALSE,"a,l",l,200,TRUE,200,1,0,0.5,2,-1,1,600,400,white,gray,3,2,2,16.71375,"[17.125,16.56500000000233,17.69999999999709,15.690000000002328,16.610000000000582,16.87999999999738,16.599999999998545,16.485000000000582,16.705000000001746,17.37000000000262,15.900000000001455,16.93499999999767]",12,
-1,-1,RDK,187,43855,0.0-1.0-186.0,FALSE,"a,l",l,200,TRUE,200,1,0,0.5,2,-1,1,600,400,white,gray,3,2,2,16.69666667,"[16.924999999995634,16.639999999999418,17.610000000000582,15.630000000004657,17.165000000000873,16.234999999993306,17.750000000007276,15.65499999999156,16.60000000000582,17.014999999999418,16.549999999995634,16.584999999999127]",12,
-1,-1,RDK,188,44072,0.0-1.0-187.0,FALSE,"a,l",a,200,TRUE,200,1,180,0.5,2,-1,1,600,400,white,gray,3,2,2,16.71458333,"[17.125,16.739999999997963,16.385000000002037,16.87999999999738,16.590000000003783,16.669999999998254,16.785000000003492,17.349999999998545,15.89999999999418,17.835000000006403,15.479999999995925,16.835000000006403]",12,
-1,-1,RDK,189,44289,0.0-1.0-188.0,FALSE,"a,l",l,200,TRUE,200,1,0,0.5,2,-1,1,600,400,white,gray,3,2,2,16.70125,"[17.089999999996508,16.714999999996508,16.580000000009022,16.6449999999968,16.68000000000029,17.614999999997963,16.55000000000291,15.929999999993015,16.56500000000233,16.625000000007276,16.569999999992433,16.85000000000582]",12,
-1,-1,RDK,190,44505,0.0-1.0-189.0,FALSE,"a,l",l,200,TRUE,200,1,0,0.5,2,-1,1,600,400,white,gray,3,2,2,16.67875,"[16.780000000006112,16.494999999995343,17.780000000006112,15.744999999995343,16.584999999999127,16.80500000000029,16.625,16.6449999999968,16.81500000000233,16.67000000000553,16.604999999995925,16.594999999993888]",12,
-1,-1,RDK,191,44722,0.0-1.0-190.0,FALSE,"a,l",a,200,TRUE,200,1,180,0.5,2,-1,1,600,400,white,gray,3,2,2,16.66291667,"[16.4800000000032,16.6449999999968,16.68000000000029,16.7300000000032,16.614999999990687,16.675000000010186,16.689999999995052,16.610000000000582,16.69999999999709,16.770000000004075,16.660000000003492,16.69999999999709]",12,
-1,-1,RDK,192,44939,0.0-1.0-191.0,FALSE,"a,l",l,200,TRUE,200,1,0,0.5,2,-1,1,600,400,white,gray,3,2,2,16.68458333,"[16.915000000000873,16.650000000001455,17.284999999996217,16.05000000000291,17.785000000003492,16.464999999996508,15.834999999999127,16.6050000000032,16.544999999998254,16.685000000004948,17.619999999988067,15.775000000008731]",12,
-1,-1,RDK,193,45155,0.0-1.0-192.0,FALSE,"a,l",a,200,TRUE,200,1,180,0.5,2,-1,1,600,400,white,gray,3,2,2,16.69375,"[17.07499999999709,16.564999999995052,16.720000000001164,16.57499999999709,16.970000000001164,17.360000000000582,16.030000000006112,16.59999999999127,16.570000000006985,16.814999999995052,16.74000000000524,16.30500000000029]",12,
-1,-1,RDK,194,45372,0.0-1.0-193.0,FALSE,"a,l",a,200,TRUE,200,1,180,0.5,2,-1,1,600,400,white,gray,3,2,2,16.66708333,"[16.74500000000262,16.57499999999709,16.8949999999968,16.709999999999127,16.635000000002037,16.669999999998254,16.834999999999127,17.029999999998836,16.035000000003492,16.7300000000032,16.669999999998254,16.474999999998545]",12,
-1,-1,RDK,195,45590,0.0-1.0-194.0,FALSE,"a,l",a,200,TRUE,200,1,180,0.5,2,-1,1,600,400,white,gray,3,2,2,16.76916667,"[17.055000000007567,16.679999999993015,16.585000000006403,16.654999999998836,17.284999999996217,15.900000000001455,16.890000000006694,16.6449999999968,16.689999999995052,16.595000000001164,16.935000000004948,17.314999999995052]",12,
-1,-1,RDK,196,45806,0.0-1.0-195.0,FALSE,"a,l",a,200,TRUE,200,1,180,0.5,2,-1,1,600,400,white,gray,3,2,2,16.66916667,"[16.530000000006112,16.589999999996508,16.835000000006403,16.604999999995925,16.70999999999185,16.66500000000815,16.75,16.55999999999767,16.61500000000524,16.654999999998836,16.69999999999709,16.81500000000233]",12,
-1,-1,RDK,197,46023,0.0-1.0-196.0,FALSE,"a,l",a,200,TRUE,200,1,180,0.5,2,-1,1,600,400,white,gray,3,2,2,16.70541667,"[16.985000000000582,16.839999999996508,16.779999999998836,16.435000000004948,16.705000000001746,16.68499999999767,16.69000000000233,16.80999999999767,16.5199999999968,16.685000000004948,16.69499999999971,16.635000000002037]",12,
-1,-1,RDK,198,46239,0.0-1.0-197.0,FALSE,"a,l",l,200,TRUE,200,1,0,0.5,2,-1,1,600,400,white,gray,3,2,2,16.69875,"[17.239999999997963,16.31500000000233,16.74000000000524,16.589999999996508,16.705000000001746,16.839999999996508,16.525000000001455,16.709999999999127,16.625000000007276,16.814999999987776,16.710000000006403,16.56999999999971]",12,
-1,-1,RDK,199,46456,0.0-1.0-198.0,FALSE,"a,l",l,200,TRUE,200,1,0,0.5,2,-1,1,600,400,white,gray,3,2,2,16.67666667,"[16.814999999995052,17.570000000006985,16.589999999996508,15.709999999999127,18.014999999999418,15.959999999999127,16.235000000000582,17.709999999999127,15.674999999995634,16.505000000004657,16.685000000004948,16.64999999999418]",12,
-1,-1,RDK,200,46673,0.0-1.0-199.0,FALSE,"a,l",l,200,TRUE,200,1,0,0.5,2,-1,1,600,400,white,gray,3,2,2,16.71875,"[17.994999999995343,15.790000000000873,17.61500000000524,15.819999999992433,16.61500000000524,16.57999999999447,16.71500000001106,17.064999999995052,17.400000000001455,15.684999999997672,16.904999999998836,16.44000000000233]",12,