"rt","key_press","trial_type","trial_index","time_elapsed","internal_node_id","correct","choices","correct_choice","trial_duration","response_ends_trial","number_of_dots","number_of_sets","coherent_direction","coherence","dot_radius","dot_life","move_distance","aperture_width","aperture_height","dot_color","background_color","RDK_type","aperture_type","reinsert_type","frame_rate","frame_rate_array","number_of_frames"
"2343","13","text","0","2344","0.0-0.0","","","","","","","","","","","","","","","","","","","","","",""
"-1","-1","RDK","1","3568","0.0-1.0-0.0","false","a,l","a","200","true","200","1","180","0.5","2","-1","1","600","400","white","gray","3","2","2","16.683333333333355","[18.200000000000273,15.299999999999727,16.800000000000182,16.59999999999991,16.59999999999991,16.700000000000273,16.5,16.799999999999727,16.90000000000009,16.300000000000182,16.799999999999727,16.700000000000273]","12"
"-1","-1","RDK","2","3783","0.0-1.0-1.0","false","a,l","l","200","true","200","1","0","0.5","2","-1","1","600","400","white","gray","3","2","2","18.218181818181826","[17.800000000000182,37.09999999999991,12.199999999999818,16.5,16.800000000000182,16.59999999999991,16.700000000000273,16.699999999999818,16.699999999999818,16.59999999999991,16.700000000000273]","11"
"-1","-1","RDK","3","3999","0.0-1.0-2.0","false","a,l","l","200","true","200","1","0","0.5","2","-1","1","600","400","white","gray","3","2","2","16.69166666666668","[17.399999999999636,16.200000000000273,16.600000000000364,32,5.899999999999636,11.400000000000091,17.299999999999727,16.699999999999818,16.200000000000273,17.299999999999727,16.50000000000091,16.799999999999727]","12"
"-1","-1","RDK","4","4217","0.0-1.0-3.0","false","a,l","a","200","true","200","1","180","0.5","2","-1","1","600","400","white","gray","3","2","2","18.15454545454544","[18.599999999999454,15,16.700000000000728,16.69999999999891,37.30000000000018,12.600000000000364,16.800000000000182,16.699999999999818,16.699999999999818,16.800000000000182,15.800000000000182]","11"
"-1","-1","RDK","5","4433","0.0-1.0-4.0","false","a,l","a","200","true","200","1","180","0.5","2","-1","1","600","400","white","gray","3","2","2","18.209090909090843","[24.199999999999818,25.899999999999636,16.800000000000182,16.699999999999818,16.699999999999818,16.600000000000364,16.699999999999818,16.699999999999818,16.700000000000728,16.599999999999454,16.699999999999818]","11"
"-1","-1","RDK","6","4649","0.0-1.0-5.0","false","a,l","a","200","true","200","1","180","0.5","2","-1","1","600","400","white","gray","3","2","2","16.633333333333365","[17.200000000000728,16.199999999999818,16.799999999999272,24.400000000000546,8.799999999999272,16.700000000000728,16.799999999999272,16.700000000000728,16.600000000000364,16.800000000000182,16.599999999999454,16]","12"
"-1","-1","RDK","7","4866","0.0-1.0-6.0","false","a,l","a","200","true","200","1","180","0.5","2","-1","1","600","400","white","gray","3","2","2","18.21818181818187","[17.400000000000546,16.299999999999272,16.5,16.900000000000546,16.699999999999818,35.69999999999891,13.700000000000728,17,16.899999999999636,16.600000000000364,16.700000000000728]","11"
"-1","-1","RDK","8","5081","0.0-1.0-7.0","false","a,l","a","200","true","200","1","180","0.5","2","-1","1","600","400","white","gray","3","2","2","18.218181818181787","[26.5,26.50000000000091,13.899999999998727,16.700000000000728,16.800000000000182,16.699999999999818,16.599999999999454,16.600000000000364,16.800000000000182,16.600000000000364,16.69999999999891]","11"
"-1","-1","RDK","9","5300","0.0-1.0-8.0","false","a,l","a","200","true","200","1","180","0.5","2","-1","1","600","400","white","gray","3","2","2","16.691666666666606","[16.99999999999909,15.900000000000546,17.299999999999272,16.600000000000364,16.800000000000182,21.099999999999454,12.200000000000728,16.600000000000364,16.699999999999818,16.699999999999818,16.699999999999818,16.699999999999818]","12"
"-1","-1","RDK","10","5514","0.0-1.0-9.0","false","a,l","a","200","true","200","1","180","0.5","2","-1","1","600","400","white","gray","3","2","2","18.440000000000055","[18.00000000000091,16.199999999999818,16.699999999999818,16.699999999999818,16.700000000000728,33.29999999999927,16.699999999999818,15.699999999999818,17.600000000000364,16.800000000000182]","10"
"-1","-1","RDK","11","5716","0.0-1.0-10.0","false","a,l","l","200","true","200","1","0","0.5","2","-1","1","600","400","white","gray","3","2","2","16.57499999999997","[16.5,16.399999999999636,16.600000000000364,26.399999999999636,6.800000000000182,15.900000000000546,17.699999999999818,16.699999999999818,16.599999999999454,16.699999999999818,16.800000000000182,15.800000000000182]","12"
"-1","-1","RDK","12","5934","0.0-1.0-11.0","false","a,l","a","200","true","200","1","180","0.5","2","-1","1","600","400","white","gray","3","2","2","18.21818181818187","[18.099999999999454,15.400000000000546,16.899999999999636,16.600000000000364,16.899999999999636,35.30000000000018,13.800000000000182,17.399999999999636,16.699999999999818,16.700000000000728,16.600000000000364]","11"
"-1","-1","RDK","13","6152","0.0-1.0-12.0","false","a,l","l","200","true","200","1","0","0.5","2","-1","1","600","400","white","gray","3","2","2","18.218181818181787","[17.099999999999454,37.100000000000364,12.199999999999818,17.199999999999818,16.700000000000728,16.699999999999818,16.69999999999891,16.600000000001273,16.699999999999818,16.699999999999818,16.699999999999818]","11"
"-1","-1","RDK","14","6366","0.0-1.0-13.0","false","a,l","a","200","true","200","1","180","0.5","2","-1","1","600","400","white","gray","3","2","2","16.691666666666606","[17.399999999999636,16.199999999999818,16.5,23.800000000000182,9.5,15.899999999999636,17.600000000000364,16.699999999999818,16.699999999999818,16.700000000000728,16.599999999999454,16.699999999999818]","12"
"-1","-1","RDK","15","6584","0.0-1.0-14.0","false","a,l","l","200","true","200","1","0","0.5","2","-1","1","600","400","white","gray","3","2","2","16.69166666666668","[17.399999999999636,15.800000000000182,17.199999999999818,16.5,16.700000000000728,31.399999999999636,2.7999999999992724,15.600000000000364,15.900000000000546,17.69999999999891,16.700000000000728,16.600000000000364]","12"
"-1","-1","RDK","16","6804","0.0-1.0-15.0","false","a,l","l","200","true","200","1","0","0.5","2","-1","1","600","400","white","gray","3","2","2","18.75454545454539","[23.900000000000546,25.399999999998727,1.7000000000007276,16.5,16.600000000000364,16.899999999999636,16.699999999999818,16.599999999999454,16.800000000000182,48.69999999999982,6.5]","11"
"-1","-1","RDK","17","7017","0.0-1.0-16.0","false","a,l","l","200","true","200","1","0","0.5","2","-1","1","600","400","white","gray","3","2","2","16.674999999999955","[17,16.199999999999818,16.800000000000182,16.699999999999818,17,28.600000000000364,4.199999999999818,16.699999999999818,16.900000000000546,16.600000000000364,16.69999999999891,16.699999999999818]","12"
"-1","-1","RDK","18","7234","0.0-1.0-17.0","false","a,l","l","200","true","200","1","0","0.5","2","-1","1","600","400","white","gray","3","2","2","16.683333333333394","[17.399999999999636,27.199999999999818,5.100000000000364,17.200000000000728,16.599999999999454,16.100000000000364,17.399999999999636,15.599999999999454,17.30000000000109,16.99999999999909,16,17.30000000000109]","12"
"-1","-1","RDK","19","7451","0.0-1.0-18.0","false","a,l","l","200","true","200","1","0","0.5","2","-1","1","600","400","white","gray","3","2","2","16.69166666666668","[19,14.600000000000364,16.600000000000364,15.799999999999272,17.599999999999454,16.200000000000728,17.199999999999818,16.599999999999454,16.80000000000109,16.69999999999891,16.600000000000364,16.600000000000364]","12"
"-1","-1","RDK","20","7668","0.0-1.0-19.0","false","a,l","a","200","true","200","1","180","0.5","2","-1","1","600","400","white","gray","3","2","2","18.209090909090843","[17.399999999999636,16,16.900000000000546,16.599999999999454,16.699999999999818,35.70000000000073,14.199999999999818,16.800000000000182,16.600000000000364,16.799999999999272,16.599999999999454]","11"
"-1","-1","RDK","21","7881","0.0-1.0-20.0","false","a,l","a","200","true","200","1","180","0.5","2","-1","1","600","400","white","gray","3","2","2","16.75454545454547","[20.600000000000364,27.399999999999636,3,16.600000000000364,16.800000000000182,16.599999999999454,16.699999999999818,16.800000000000182,16.600000000000364,16.700000000000728,16.49999999999909]","11"
"-1","-1","RDK","22","8084","0.0-1.0-21.0","false","a,l","a","200","true","200","1","180","0.5","2","-1","1","600","400","white","gray","3","2","2","16.658333333333303","[16.69999999999891,15.700000000000728,17.5,16.600000000000364,25.099999999998545,8.200000000000728,16.600000000000364,16.799999999999272,16.700000000000728,16.699999999999818,16.600000000000364,16.699999999999818]","12"
"-1","-1","RDK","23","8301","0.0-1.0-22.0","false","a,l","a","200","true","200","1","180","0.5","2","-1","1","600","400","white","gray","3","2","2","16.69166666666676","[19,25.299999999999272,5.200000000000728,17.399999999999636,16.700000000000728,16.700000000000728,16.69999999999891,16.599999999998545,16.700000000000728,16.100000000000364,17.30000000000109,16.600000000000364]","12"
"-1","-1","RDK","24","8518","0.0-1.0-23.0","false","a,l","a","200","true","200","1","180","0.5","2","-1","1","600","400","white","gray","3","2","2","18.21818181818195","[17.30000000000109,16.299999999999272,16.5,32.899999999999636,17.30000000000109,16.700000000000728,16.600000000000364,15.699999999998909,17.700000000000728,15.899999999997817,17.50000000000182]","11"
"-1","-1","RDK","25","8732","0.0-1.0-24.0","false","a,l","l","200","true","200","1","0","0.5","2","-1","1","600","400","white","gray","3","2","2","18.4","[17.5,16.5,16.700000000000728,16.600000000000364,36.89999999999782,12.300000000001091,18.700000000000728,14.5,17.599999999998545,16.700000000000728]","10"
"-1","-1","RDK","26","8935","0.0-1.0-25.0","false","a,l","l","200","true","200","1","0","0.5","2","-1","1","600","400","white","gray","3","2","2","18.10909090909081","[16.49999999999818,38.70000000000073,10.600000000000364,16.700000000000728,16.69999999999891,16.700000000000728,16.600000000000364,16.599999999998545,16.799999999999272,16.600000000000364,16.700000000000728]","11"
"-1","-1","RDK","27","9153","0.0-1.0-26.0","false","a,l","l","200","true","200","1","0","0.5","2","-1","1","600","400","white","gray","3","2","2","16.69999999999997","[17.899999999997817,15.900000000001455,16.399999999999636,16.399999999999636,16,17.600000000000364,16.700000000000728,16.5,16.899999999999636,16.700000000000728,16.69999999999891,16.700000000000728]","12"
"-1","-1","RDK","28","9368","0.0-1.0-27.0","false","a,l","a","200","true","200","1","180","0.5","2","-1","1","600","400","white","gray","3","2","2","18.218181818181787","[17.099999999998545,34.400000000001455,15.5,16.700000000000728,16.600000000000364,16.700000000000728,16.599999999998545,16.600000000000364,16.799999999999272,16.700000000000728,16.69999999999891]","11"
"-1","-1","RDK","29","9584","0.0-1.0-28.0","false","a,l","a","200","true","200","1","180","0.5","2","-1","1","600","400","white","gray","3","2","2","18.209090909091007","[17.30000000000109,16.099999999998545,36.00000000000182,13.299999999999272,16.700000000000728,17.5,16.799999999999272,16.50000000000182,16.799999999999272,16.599999999998545,16.700000000000728]","11"
"-1","-1","RDK","30","9801","0.0-1.0-29.0","false","a,l","l","200","true","200","1","0","0.5","2","-1","1","600","400","white","gray","3","2","2","16.70000000000012","[17.299999999999272,16.30000000000109,16.799999999999272,16.600000000000364,16.599999999998545,31.600000000002183,2.2999999999992724,16.100000000000364,16.69999999999891,16.600000000000364,16.80000000000109,16.700000000000728]","12"
"-1","-1","RDK","31","10018","0.0-1.0-30.0","false","a,l","a","200","true","200","1","180","0.5","2","-1","1","600","400","white","gray","3","2","2","18.209090909090843","[29.69999999999891,25.50000000000182,11.699999999998909,16.700000000000728,16.799999999999272,16.700000000000728,16.600000000000364,16.69999999999709,16.80000000000109,16.5,16.600000000000364]","11"
"-1","-1","RDK","32","10232","0.0-1.0-31.0","false","a,l","l","200","true","200","1","0","0.5","2","-1","1","600","400","white","gray","3","2","2","16.790909090909157","[18.100000000000364,16.5,16.599999999998545,16.700000000000728,16.600000000000364,16.799999999999272,16.600000000000364,16.80000000000109,16.600000000000364,16.69999999999891,16.700000000000728]","11"
"-1","-1","RDK","33","10435","0.0-1.0-32.0","false","a,l","l","200","true","200","1","0","0.5","2","-1","1","600","400","white","gray","3","2","2","16.608333333333423","[16.700000000000728,15.800000000001091,16.700000000000728,16.69999999999891,16.700000000000728,16.700000000000728,16.599999999998545,30.5,3.3000000000010914,15.100000000000364,17.799999999999272,16.69999999999891]","12"
"-1","-1","RDK","34","10652","0.0-1.0-33.0","false","a,l","l","200","true","200","1","0","0.5","2","-1","1","600","400","white","gray","3","2","2","20.039999999999964","[17.30000000000109,16.19999999999891,52.70000000000073,14,16.700000000000728,16.700000000000728,16.69999999999891,16.700000000000728,16.69999999999891,16.69999999999891]","10"
"-1","-1","RDK","35","10866","0.0-1.0-34.0","false","a,l","a","200","true","200","1","180","0.5","2","-1","1","600","400","white","gray","3","2","2","16.708333333333332","[17.399999999997817,16.400000000001455,16.600000000000364,16.69999999999891,16.600000000000364,23.100000000000364,10.100000000000364,21.899999999999636,11.600000000000364,16.799999999999272,16.600000000000364,16.700000000000728]","12"
"-1","-1","RDK","36","11086","0.0-1.0-35.0","false","a,l","l","200","true","200","1","0","0.5","2","-1","1","600","400","white","gray","3","2","2","18.209090909091007","[17.80000000000109,32.100000000000364,16.299999999999272,17.30000000000109,16.799999999999272,16.700000000000728,16.599999999998545,16.600000000000364,16.899999999999636,15.600000000000364,17.600000000000364]","11"
"-1","-1","RDK","37","11299","0.0-1.0-36.0","false","a,l","l","200","true","200","1","0","0.5","2","-1","1","600","400","white","gray","3","2","2","16.763636363636166","[17.99999999999818,16.30000000000109,16.69999999999891,16.600000000000364,28.299999999999272,4.600000000000364,16.700000000000728,17.200000000000728,16.600000000000364,16.700000000000728,16.69999999999709]","11"
"-1","-1","RDK","38","11502","0.0-1.0-37.0","false","a,l","l","200","true","200","1","0","0.5","2","-1","1","600","400","white","gray","3","2","2","16.649999999999938","[16.700000000000728,16.299999999999272,16.700000000000728,16.69999999999891,16.700000000000728,16.700000000000728,16.49999999999818,31.299999999999272,2.3000000000010914,16.399999999999636,16.80000000000109,16.69999999999891]","12"
"-1","-1","RDK","39","11719","0.0-1.0-38.0","false","a,l","a","200","true","200","1","180","0.5","2","-1","1","600","400","white","gray","3","2","2","18.218181818181787","[17.30000000000109,16.299999999999272,44,5.200000000000728,17.399999999999636,16.700000000000728,16.799999999999272,16.600000000000364,16.69999999999891,16.700000000000728,16.69999999999891]","11"
"-1","-1","RDK","40","11936","0.0-1.0-39.0","false","a,l","l","200","true","200","1","0","0.5","2","-1","1","600","400","white","gray","3","2","2","18.209090909091007","[18.200000000000728,15.200000000000728,16.899999999999636,16.600000000000364,35.99999999999818,13.600000000000364,17.100000000000364,16.69999999999891,16.600000000000364,16.700000000000728,16.700000000000728]","11"
"-1","-1","RDK","41","12151","0.0-1.0-40.0","false","a,l","a","200","true","200","1","180","0.5","2","-1","1","600","400","white","gray","3","2","2","16.69166666666676","[18.600000000000364,25.899999999999636,5.100000000000364,17.30000000000109,16.700000000000728,16.69999999999891,16,17.299999999999272,16.700000000000728,16.69999999999891,16.600000000000364,16.700000000000728]","12"
"-1","-1","RDK","42","12367","0.0-1.0-41.0","false","a,l","l","200","true","200","1","0","0.5","2","-1","1","600","400","white","gray","3","2","2","18.45","[18.100000000000364,16.400000000001455,34.79999999999927,14.800000000001091,17,16.69999999999891,16.50000000000182,16.799999999999272,16.799999999999272,16.599999999998545]","10"
"-1","-1","RDK","43","12570","0.0-1.0-42.0","false","a,l","l","200","true","200","1","0","0.5","2","-1","1","600","400","white","gray","3","2","2","16.616666666666788","[16.19999999999891,16.50000000000182,16.69999999999891,16.700000000000728,16.600000000000364,16.700000000000728,16.599999999998545,15.799999999999272,17.50000000000182,16.799999999999272,16.700000000000728,16.600000000000364]","12"
"-1","-1","RDK","44","12784","0.0-1.0-43.0","false","a,l","l","200","true","200","1","0","0.5","2","-1","1","600","400","white","gray","3","2","2","18.25454545454539","[23.99999999999818,38.80000000000109,4.5,16.69999999999891,16.700000000000728,16.700000000000728,16.600000000000364,16.69999999999709,16.700000000000728,16.700000000000728,16.700000000000728]","11"
"-1","-1","RDK","45","13001","0.0-1.0-44.0","false","a,l","a","200","true","200","1","180","0.5","2","-1","1","600","400","white","gray","3","2","2","16.666666666666668","[17.19999999999891,16.50000000000182,16.600000000000364,16.599999999998545,21.799999999999272,11.700000000000728,16.600000000000364,16.600000000000364,16.69999999999891,16.700000000000728,16.600000000000364,16.399999999999636]","12"
"-1","-1","RDK","46","13220","0.0-1.0-45.0","false","a,l","l","200","true","200","1","0","0.5","2","-1","1","600","400","white","gray","3","2","2","18.190909090909123","[18.19999999999891,15.300000000001091,16.799999999999272,16.700000000000728,16.600000000000364,36.099999999998545,13.5,16.299999999999272,17.5,15.600000000002183,17.5]","11"
"-1","-1","RDK","47","13437","0.0-1.0-46.0","false","a,l","l","200","true","200","1","0","0.5","2","-1","1","600","400","white","gray","3","2","2","18.209090909091007","[17.30000000000109,41.50000000000182,7.999999999998181,16.80000000000109,16.69999999999891,16.100000000000364,17.30000000000109,16.600000000000364,16,17.19999999999891,16.799999999999272]","11"
"-1","-1","RDK","48","13653","0.0-1.0-47.0","false","a,l","a","200","true","200","1","180","0.5","2","-1","1","600","400","white","gray","3","2","2","16.691666666666606","[17.299999999997453,16.30000000000109,16.600000000002183,16.899999999999636,29.599999999998545,2.7000000000007276,17.100000000000364,17.099999999998545,16.700000000000728,16.700000000000728,16.69999999999891,16.600000000000364]","12"
"-1","-1","RDK","49","13867","0.0-1.0-48.0","false","a,l","a","200","true","200","1","180","0.5","2","-1","1","600","400","white","gray","3","2","2","16.69999999999997","[20.700000000000728,25.399999999999636,3.2000000000007276,17.599999999998545,16.80000000000109,16.600000000000364,16.700000000000728,16.69999999999891,16.69999999999891,16.600000000000364,16.700000000000728,16.69999999999891]","12"
"-1","-1","RDK","50","14084","0.0-1.0-49.0","false","a,l","l","200","true","200","1","0","0.5","2","-1","1","600","400","white","gray","3","2","2","16.633333333333365","[16.700000000000728,16.30000000000109,15.799999999999272,26.399999999999636,10.400000000001455,13.399999999997817,17.400000000001455,16.700000000000728,16.69999999999891,16.700000000000728,16.700000000000728,16.399999999997817]","12"
"-1","-1","RDK","51","14303","0.0-1.0-50.0","false","a,l","l","200","true","200","1","0","0.5","2","-1","1","600","400","white","gray","3","2","2","16.708333333333332","[17.899999999999636,15,17.600000000000364,16.600000000000364,16.600000000000364,26.299999999999272,7.200000000000728,19,13.800000000001091,17.099999999998545,16.700000000000728,16.69999999999891]","12"
"-1","-1","RDK","52","14520","0.0-1.0-51.0","false","a,l","a","200","true","200","1","180","0.5","2","-1","1","600","400","white","gray","3","2","2","18.281818181818213","[19.600000000000364,32.399999999999636,15.799999999999272,16.600000000000364,16.700000000000728,16.700000000000728,16.600000000000364,16.799999999999272,15.699999999998909,17.5,16.700000000000728]","11"
"-1","-1","RDK","53","14744","0.0-1.0-52.0","false","a,l","a","200","true","200","1","180","0.5","2","-1","1","600","400","white","gray","3","2","2","16.633333333333212","[18.099999999998545,15.5,16.700000000000728,16.700000000000728,24.19999999999891,9,16.600000000000364,16.69999999999891,16.80000000000109,16.799999999999272,16.600000000000364,15.899999999999636]","12"
"-1","-1","RDK","54","14951","0.0-1.0-53.0","false","a,l","l","200","true","200","1","0","0.5","2","-1","1","600","400","white","gray","3","2","2","16.790909090908993","[18.30000000000109,16.399999999997817,16.700000000000728,16.600000000000364,16.700000000000728,16.69999999999891,29.899999999999636,2.600000000000364,16.600000000000364,17.5,16.69999999999891]","11"
"-1","-1","RDK","55","15153","0.0-1.0-54.0","false","a,l","l","200","true","200","1","0","0.5","2","-1","1","600","400","white","gray","3","2","2","18.109090909090977","[15.799999999999272,16.50000000000182,42.19999999999891,7.700000000000728,15.799999999999272,17.700000000000728,16.69999999999891,16.700000000000728,16.600000000000364,16.700000000000728,16.799999999999272]","11"
"-1","-1","RDK","56","15369","0.0-1.0-55.0","false","a,l","l","200","true","200","1","0","0.5","2","-1","1","600","400","white","gray","3","2","2","18.17272727272724","[17.400000000001455,16.099999999998545,16.700000000000728,16.700000000000728,36.69999999999891,13.299999999999272,16.899999999999636,16.600000000000364,16.700000000000728,16.600000000000364,16.19999999999891]","11"
"-1","-1","RDK","57","15584","0.0-1.0-56.0","false","a,l","l","200","true","200","1","0","0.5","2","-1","1","600","400","white","gray","3","2","2","16.708333333333332","[17.100000000000364,16.19999999999891,17.100000000000364,16.69999999999891,16.700000000000728,16.700000000000728,16.600000000000364,15.799999999999272,16.80000000000109,17.399999999997817,16.700000000000728,16.700000000000728]","12"
"-1","-1","RDK","58","15803","0.0-1.0-57.0","false","a,l","a","200","true","200","1","180","0.5","2","-1","1","600","400","white","gray","3","2","2","16.691666666666453","[17.19999999999891,16.5,26.399999999999636,6.899999999999636,16.600000000000364,16.69999999999891,16.80000000000109,16.600000000000364,16.700000000000728,16.600000000000364,16.69999999999891,16.599999999998545]","12"
"-1","-1","RDK","59","16020","0.0-1.0-58.0","false","a,l","a","200","true","200","1","180","0.5","2","-1","1","600","400","white","gray","3","2","2","18.209090909090843","[17.30000000000109,16.100000000000364,16.799999999999272,16.700000000000728,16.600000000000364,34.79999999999927,15.200000000000728,16.700000000000728,16.69999999999891,16.599999999998545,16.799999999999272]","11"
"-1","-1","RDK","60","16238","0.0-1.0-59.0","false","a,l","a","200","true","200","1","180","0.5","2","-1","1","600","400","white","gray","3","2","2","18.21818181818195","[17.099999999998545,36.80000000000291,12.099999999996726,17.700000000002547,16.600000000000364,16.69999999999891,16.600000000000364,16.80000000000109,16.600000000000364,16.69999999999891,16.700000000000728]","11"
"-1","-1","RDK","61","16451","0.0-1.0-60.0","false","a,l","a","200","true","200","1","180","0.5","2","-1","1","600","400","white","gray","3","2","2","16.78181818181805","[17.799999999997453,16.700000000000728,16.600000000000364,16.700000000000728,16.700000000000728,16.69999999999709,16.100000000002183,17.400000000001455,16.599999999998545,16.600000000002183,16.69999999999709]","11"
"-1","-1","RDK","62","16654","0.0-1.0-61.0","false","a,l","a","200","true","200","1","180","0.5","2","-1","1","600","400","white","gray","3","2","2","18.15454545454552","[16.700000000000728,16.400000000001455,16.599999999998545,16.700000000000728,16.69999999999709,16.600000000002183,48.099999999998545,3.100000000002183,15.399999999997817,16.700000000000728,16.700000000000728]","11"
"-1","-1","RDK","63","16869","0.0-1.0-62.0","false","a,l","a","200","true","200","1","180","0.5","2","-1","1","600","400","white","gray","3","2","2","20.020000000000074","[17.299999999999272,16.600000000002183,49.5,16.69999999999709,16.80000000000291,16.69999999999709,16.700000000000728,16.700000000000728,17,16.200000000000728]","10"
"-1","-1","RDK","64","17087","0.0-1.0-63.0","false","a,l","a","200","true","200","1","180","0.5","2","-1","1","600","400","white","gray","3","2","2","16.699999999999818","[18.099999999998545,15.000000000003638,17.19999999999709,16.700000000000728,16.5,30.899999999997817,2.8000000000029104,16.400000000001455,16.69999999999709,16.700000000000728,16.69999999999709,16.700000000000728]","12"
"-1","-1","RDK","65","17302","0.0-1.0-64.0","false","a,l","l","200","true","200","1","0","0.5","2","-1","1","600","400","white","gray","3","2","2","18.270000000000074","[26,32.5,8.5,16.799999999999272,16.600000000002183,16.700000000000728,16.700000000000728,16.599999999998545,20,12.299999999999272]","10"
"-1","-1","RDK","66","17504","0.0-1.0-65.0","false","a,l","a","200","true","200","1","180","0.5","2","-1","1","600","400","white","gray","3","2","2","18.036363636363436","[15.399999999997817,16.299999999999272,16.899999999997817,16.600000000002183,16.599999999998545,37.00000000000364,12.999999999996362,16.700000000000728,16.700000000000728,16.700000000000728,16.5]","11"
"-1","-1","RDK","67","17719","0.0-1.0-66.0","false","a,l","a","200","true","200","1","180","0.5","2","-1","1","600","400","white","gray","3","2","2","16.766666666666726","[25.700000000000728,18.100000000002183,6.799999999995634,17.30000000000291,16.599999999998545,16.799999999999272,16.600000000002183,16.69999999999709,16.400000000001455,17.299999999999272,15.80000000000291,17.099999999998545]","12"
"-1","-1","RDK","68","17954","0.0-1.0-67.0","false","a,l","a","200","true","200","1","180","0.5","2","-1","1","600","400","white","gray","3","2","2","18.258333333333514","[17.69999999999709,15.80000000000291,15.700000000000728,44.599999999998545,5.700000000000728,17.399999999997817,16.700000000000728,16.700000000000728,16.700000000000728,16.599999999998545,16.200000000000728,19.30000000000291]","12"
"-1","-1","RDK","69","18171","0.0-1.0-68.0","false","a,l","a","200","true","200","1","180","0.5","2","-1","1","600","400","white","gray","3","2","2","16.675000000000182","[17.100000000002183,16.200000000000728,16.799999999999272,16.599999999998545,16.700000000000728,16.5,24.900000000001455,7.799999999999272,17.19999999999709,16.900000000001455,16.700000000000728,16.700000000000728]","12"
"-1","-1","RDK","70","18387","0.0-1.0-69.0","false","a,l","a","200","true","200","1","180","0.5","2","-1","1","600","400","white","gray","3","2","2","18.21818181818228","[18.000000000003638,45.20000000000073,3.899999999997817,16.5,16.700000000000728,16.700000000000728,16.69999999999709,16.400000000001455,17,16.600000000002183,16.700000000000728]","11"
"-1","-1","RDK","71","18604","0.0-1.0-70.0","false","a,l","a","200","true","200","1","180","0.5","2","-1","1","600","400","white","gray","3","2","2","18.209090909091174","[18.200000000000728,14.80000000000291,17.299999999999272,16.599999999998545,39.60000000000218,10.5,16.599999999998545,16.700000000000728,16.700000000000728,16.700000000000728,16.599999999998545]","11"
"-1","-1","RDK","72","18821","0.0-1.0-71.0","false","a,l","l","200","true","200","1","0","0.5","2","-1","1","600","400","white","gray","3","2","2","18.209090909091174","[17.10000000000582,16.39999999999418,16.700000000000728,16.600000000002183,16.799999999999272,16.700000000000728,34.400000000001455,15.599999999998545,16.599999999998545,16.700000000000728,16.700000000000728]","11"
"-1","-1","RDK","73","19037","0.0-1.0-72.0","false","a,l","l","200","true","200","1","0","0.5","2","-1","1","600","400","white","gray","3","2","2","18.19090909090896","[17.299999999999272,22.000000000003638,39.299999999995634,4.900000000001455,16.599999999998545,16.799999999999272,16.600000000002183,16.700000000000728,16.69999999999709,16.600000000002183,16.599999999998545]","11"
"-1","-1","RDK","74","19254","0.0-1.0-73.0","false","a,l","l","200","true","200","1","0","0.5","2","-1","1","600","400","white","gray","3","2","2","16.691666666666304","[17.399999999997817,16.100000000002183,16.799999999999272,16.700000000000728,16.599999999998545,24.5,8.900000000001455,16.499999999996362,16.799999999999272,16.700000000000728,16.700000000000728,16.599999999998545]","12"
"-1","-1","RDK","75","19471","0.0-1.0-74.0","false","a,l","l","200","true","200","1","0","0.5","2","-1","1","600","400","white","gray","3","2","2","18.227272727273057","[18.700000000000728,44.599999999998545,3.500000000003638,16.799999999999272,16.19999999999709,17.200000000004366,16.69999999999709,16.600000000002183,16.700000000000728,15.899999999997817,17.600000000002183]","11"
"-1","-1","RDK","76","19688","0.0-1.0-75.0","false","a,l","a","200","true","200","1","180","0.5","2","-1","1","600","400","white","gray","3","2","2","18.209090909091174","[17.30000000000291,16.19999999999709,16.799999999999272,16.600000000002183,41.80000000000291,8.19999999999709,16.600000000002183,16.799999999999272,16.700000000000728,15.69999999999709,17.600000000002183]","11"
"-1","-1","RDK","77","19905","0.0-1.0-76.0","false","a,l","a","200","true","200","1","180","0.5","2","-1","1","600","400","white","gray","3","2","2","16.59166666666685","[25.200000000004366,6.799999999995634,17,16.700000000000728,16.599999999998545,16.80000000000291,16.599999999998545,15.900000000001455,18.900000000001455,15.099999999998545,16.799999999999272,16.700000000000728]","12"
"-1","-1","RDK","78","20121","0.0-1.0-77.0","false","a,l","l","200","true","200","1","0","0.5","2","-1","1","600","400","white","gray","3","2","2","20.039999999999782","[17.599999999998545,16.299999999999272,50.29999999999927,16.099999999998545,16.700000000000728,16.600000000002183,16.799999999999272,16.599999999998545,16.700000000000728,16.700000000000728]","10"
"-1","-1","RDK","79","20338","0.0-1.0-78.0","false","a,l","l","200","true","200","1","0","0.5","2","-1","1","600","400","white","gray","3","2","2","16.699999999999818","[18,15.299999999999272,17.099999999998545,16.600000000002183,16.599999999998545,21.5,11.599999999998545,16.899999999997817,17.500000000003638,15.799999999999272,16.799999999999272,16.700000000000728]","12"
"-1","-1","RDK","80","20555","0.0-1.0-79.0","false","a,l","l","200","true","200","1","0","0.5","2","-1","1","600","400","white","gray","3","2","2","18.19090909090896","[44.99999999999636,10.900000000005093,10.499999999996362,17.400000000001455,16.700000000000728,16.599999999998545,16.600000000002183,16.299999999995634,16.500000000003638,16.399999999997817,17.200000000000728]","11"
"-1","-1","RDK","81","20771","0.0-1.0-80.0","false","a,l","a","200","true","200","1","180","0.5","2","-1","1","600","400","white","gray","3","2","2","18.209090909091174","[25.900000000001455,30,11,15.899999999997817,17.500000000003638,16.5,16.799999999999272,16.799999999999272,16.600000000002183,16.69999999999709,16.600000000002183]","11"
"-1","-1","RDK","82","20988","0.0-1.0-81.0","false","a,l","l","200","true","200","1","0","0.5","2","-1","1","600","400","white","gray","3","2","2","18.21818181818195","[17.30000000000291,16.299999999995634,16.700000000000728,16.700000000000728,16.700000000000728,41.099999999998545,11.200000000000728,14.200000000000728,16.799999999999272,16.700000000000728,16.700000000000728]","11"
"-1","-1","RDK","83","21204","0.0-1.0-82.0","false","a,l","l","200","true","200","1","0","0.5","2","-1","1","600","400","white","gray","3","2","2","18.21818181818228","[18.400000000005093,41.5,6.899999999997817,16.899999999997817,16.700000000000728,16.700000000000728,16.5,16.799999999999272,15.900000000005093,16.899999999997817,17.200000000000728]","11"
"-1","-1","RDK","84","21422","0.0-1.0-83.0","false","a,l","a","200","true","200","1","180","0.5","2","-1","1","600","400","white","gray","3","2","2","18.209090909090843","[17.400000000001455,15.099999999998545,17.80000000000291,15.69999999999709,46.29999999999927,4.100000000002183,17.19999999999709,16.700000000000728,16.700000000000728,16.700000000000728,16.599999999998545]","11"
"-1","-1","RDK","85","21636","0.0-1.0-84.0","false","a,l","a","200","true","200","1","180","0.5","2","-1","1","600","400","white","gray","3","2","2","16.70833333333303","[25.399999999997817,22.899999999997817,4.100000000002183,14.099999999998545,17.200000000004366,16.799999999999272,16.700000000000728,15.599999999998545,16.799999999999272,16.799999999999272,17.399999999997817,16.700000000000728]","12"
"-1","-1","RDK","86","21855","0.0-1.0-85.0","false","a,l","a","200","true","200","1","180","0.5","2","-1","1","600","400","white","gray","3","2","2","18.209090909090843","[17.200000000000728,16.299999999999272,16.700000000000728,48.599999999998545,6.900000000001455,10.799999999999272,17.100000000002183,16.700000000000728,16.599999999998545,16.799999999999272,16.599999999998545]","11"
"-1","-1","RDK","87","22072","0.0-1.0-86.0","false","a,l","a","200","true","200","1","180","0.5","2","-1","1","600","400","white","gray","3","2","2","18.21818181818195","[17.700000000000728,15.299999999999272,17.299999999999272,16.700000000000728,16.599999999998545,41.10000000000218,8.899999999997817,19.600000000002183,13.700000000000728,16.799999999999272,16.700000000000728]","11"
"-1","-1","RDK","88","22288","0.0-1.0-87.0","false","a,l","l","200","true","200","1","0","0.5","2","-1","1","600","400","white","gray","3","2","2","18.209090909090843","[17.30000000000291,43.49999999999636,5.400000000001455,17.399999999997817,16.600000000002183,16.599999999998545,17.099999999998545,15.200000000000728,17.900000000001455,16.600000000002183,16.69999999999709]","11"
"-1","-1","RDK","89","22503","0.0-1.0-88.0","false","a,l","l","200","true","200","1","0","0.5","2","-1","1","600","400","white","gray","3","2","2","18.21818181818162","[17.299999999999272,15.200000000000728,17.80000000000291,16.69999999999709,38.20000000000073,11.899999999997817,16.5,16.700000000000728,16.5,16.900000000001455,16.69999999999709]","11"
"-1","-1","RDK","90","22722","0.0-1.0-89.0","false","a,l","a","200","true","200","1","180","0.5","2","-1","1","600","400","white","gray","3","2","2","18.209090909090843","[22.399999999997817,33.10000000000218,11.400000000001455,16.600000000002183,16.69999999999709,16.69999999999709,16.700000000000728,16.100000000002183,17.19999999999709,16.700000000000728,16.700000000000728]","11"
"-1","-1","RDK","91","22943","0.0-1.0-90.0","false","a,l","l","200","true","200","1","0","0.5","2","-1","1","600","400","white","gray","3","2","2","20.039999999999782","[18.200000000000728,14.900000000001455,17.099999999998545,53,13.900000000001455,16.5,16.700000000000728,16.69999999999709,16.69999999999709,16.700000000000728]","10"
"-1","-1","RDK","92","23154","0.0-1.0-91.0","false","a,l","a","200","true","200","1","180","0.5","2","-1","1","600","400","white","gray","3","2","2","16.708333333333638","[17.399999999997817,15.300000000006548,17.69999999999709,16.599999999998545,16.700000000000728,16.700000000000728,26.900000000001455,6.399999999997817,16.400000000001455,16.19999999999709,17.500000000003638,16.700000000000728]","12"
"-1","-1","RDK","93","23379","0.0-1.0-92.0","false","a,l","a","200","true","200","1","180","0.5","2","-1","1","600","400","white","gray","3","2","2","18.15454545454519","[17.700000000000728,21.899999999997817,27.200000000000728,16.5,17,16.700000000000728,16.599999999998545,16.600000000002183,16.700000000000728,28.700000000000728,4.099999999994907]","11"
"-1","-1","RDK","94","23589","0.0-1.0-93.0","false","a,l","a","200","true","200","1","180","0.5","2","-1","1","600","400","white","gray","3","2","2","18.172727272727073","[16.799999999999272,16.400000000001455,16.69999999999345,16.600000000002183,16.700000000000728,35.79999999999927,14.100000000002183,16.899999999997817,16.600000000002183,16.700000000000728,16.599999999998545]","11"
"-1","-1","RDK","95","23805","0.0-1.0-94.0","false","a,l","a","200","true","200","1","180","0.5","2","-1","1","600","400","white","gray","3","2","2","18.200000000000067","[26,32.89999999999782,7.799999999999272,16.80000000000291,16.69999999999709,16.700000000000728,16.600000000002183,16.799999999999272,15.900000000001455,17.19999999999709,16.80000000000291]","11"
"-1","-1","RDK","96","24023","0.0-1.0-95.0","false","a,l","l","200","true","200","1","0","0.5","2","-1","1","600","400","white","gray","3","2","2","18.209090909090843","[18,14.599999999998545,17.600000000002183,16.599999999998545,35.29999999999927,14.900000000001455,16.600000000002183,16.69999999999345,16.700000000000728,16.700000000000728,16.600000000002183]","11"
"-1","-1","RDK","97","24242","0.0-1.0-96.0","false","a,l","a","200","true","200","1","180","0.5","2","-1","1","600","400","white","gray","3","2","2","20.030000000000292","[17.19999999999709,15.400000000001455,17.600000000002183,16.799999999999272,16.599999999998545,59.400000000001455,7.100000000002183,16.299999999995634,17.200000000004366,16.700000000000728]","10"
"-1","-1","RDK","98","24453","0.0-1.0-97.0","false","a,l","l","200","true","200","1","0","0.5","2","-1","1","600","400","white","gray","3","2","2","18.43999999999978","[18.099999999998545,23.899999999997817,40.400000000001455,1.6000000000021828,16.299999999999272,17.399999999997817,16.900000000001455,16.5,16.600000000002183,16.69999999999709]","10"
"-1","-1","RDK","99","24656","0.0-1.0-98.0","false","a,l","a","200","true","200","1","180","0.5","2","-1","1","600","400","white","gray","3","2","2","18.12727272727286","[16.700000000000728,16.5,16.599999999994907,16.700000000000728,16.799999999999272,37.900000000001455,11.400000000001455,17.200000000000728,16.700000000000728,16.700000000000728,16.200000000000728]","11"
"-1","-1","RDK","100","24873","0.0-1.0-99.0","false","a,l","l","200","true","200","1","0","0.5","2","-1","1","600","400","white","gray","3","2","2","18.227272727272396","[18.599999999998545,44.89999999999782,3.600000000002183,16.499999999996362,16.80000000000291,16.599999999998545,16.700000000000728,16.700000000000728,16.200000000000728,16.30000000000291,17.599999999994907]","11"
"-1","-1","RDK","101","25089","0.0-1.0-100.0","false","a,l","l","200","true","200","1","0","0.5","2","-1","1","600","400","white","gray","3","2","2","18.209090909090843","[17.299999999999272,16.200000000000728,16.799999999999272,15.799999999999272,42.20000000000073,8.399999999997817,16.900000000001455,16.69999999999709,16.700000000000728,16.700000000000728,16.600000000002183]","11"
"-1","-1","RDK","102","25308","0.0-1.0-101.0","false","a,l","l","200","true","200","1","0","0.5","2","-1","1","600","400","white","gray","3","2","2","18.045454545454216","[15.69999999999709,15.600000000002183,17.200000000000728,16.700000000000728,16.69999999999709,16.600000000002183,36.29999999999927,13.700000000000728,16.599999999998545,16.80000000000291,16.599999999994907]","11"
"-1","-1","RDK","103","25524","0.0-1.0-102.0","false","a,l","l","200","true","200","1","0","0.5","2","-1","1","600","400","white","gray","3","2","2","18.209090909090843","[17.799999999999272,23.69999999999709,26.200000000004366,16.099999999998545,16.5,16.599999999998545,16.500000000003638,16.899999999997817,16.799999999999272,16.400000000001455,16.799999999999272]","11"
"-1","-1","RDK","104","25740","0.0-1.0-103.0","false","a,l","l","200","true","200","1","0","0.5","2","-1","1","600","400","white","gray","3","2","2","16.70000000000012","[18.400000000001455,15.700000000000728,16.299999999999272,16.700000000000728,16.5,16.700000000000728,27.899999999997817,4.5,16.900000000001455,17.400000000001455,16.69999999999709,16.700000000000728]","12"
"-1","-1","RDK","105","25954","0.0-1.0-104.0","false","a,l","l","200","true","200","1","0","0.5","2","-1","1","600","400","white","gray","3","2","2","20.48888888888905","[25.600000000002183,45.099999999998545,13.700000000000728,16.799999999999272,16.5,16.700000000000728,16.799999999999272,17.400000000001455,15.799999999999272]","9"
"-1","-1","RDK","106","26158","0.0-1.0-105.0","false","a,l","l","200","true","200","1","0","0.5","2","-1","1","600","400","white","gray","3","2","2","18","[14.900000000001455,16.5,16.5,16.700000000000728,16.599999999998545,38.60000000000218,11.599999999998545,16.5,16.69999999999709,16.700000000000728,16.700000000000728]","11"
"-1","-1","RDK","107","26373","0.0-1.0-106.0","false","a,l","l","200","true","200","1","0","0.5","2","-1","1","600","400","white","gray","3","2","2","16.691666666666606","[16.5,29.5,4.299999999999272,16.600000000002183,16.69999999999709,16.700000000000728,16.700000000000728,16.600000000002183,15.69999999999709,17.900000000001455,15.700000000000728,17.399999999997817]","12"
"-1","-1","RDK","108","26599","0.0-1.0-107.0","false","a,l","a","200","true","200","1","180","0.5","2","-1","1","600","400","white","gray","3","2","2","20.009999999999856","[18.200000000000728,14.900000000001455,17.19999999999709,49.50000000000364,17.299999999999272,16.599999999998545,16.700000000000728,16.700000000000728,16.700000000000728,16.299999999995634]","10"
"-1","-1","RDK","109","26807","0.0-1.0-108.0","false","a,l","a","200","true","200","1","180","0.5","2","-1","1","600","400","white","gray","3","2","2","16.70000000000012","[17.400000000001455,16,17,16.599999999998545,16.700000000000728,15.700000000004366,32.19999999999709,2.6999999999970896,15.600000000002183,17.200000000000728,16.599999999998545,16.700000000000728]","12"
"-1","-1","RDK","110","27024","0.0-1.0-109.0","false","a,l","a","200","true","200","1","180","0.5","2","-1","1","600","400","white","gray","3","2","2","20.029999999999927","[26.999999999996362,44.00000000000364,11.700000000000728,17.599999999998545,16.599999999998545,16.700000000000728,16.700000000000728,16.700000000000728,16.69999999999709,16.600000000002183]","10"
"-1","-1","RDK","111","27241","0.0-1.0-110.0","false","a,l","l","200","true","200","1","0","0.5","2","-1","1","600","400","white","gray","3","2","2","20.029999999999927","[17.299999999999272,16.200000000000728,16.700000000000728,16.600000000002183,49.69999999999709,16.400000000001455,17.299999999995634,16.700000000000728,16.700000000000728,16.700000000000728]","10"
"-1","-1","RDK","112","27455","0.0-1.0-111.0","false","a,l","a","200","true","200","1","180","0.5","2","-1","1","600","400","white","gray","3","2","2","16.70000000000012","[19.200000000000728,17.5,13.5,16.80000000000291,16.69999999999709,16.600000000002183,16.700000000000728,16.19999999999709,17.099999999998545,16.700000000000728,16.700000000000728,16.700000000000728]","12"
"-1","-1","RDK","113","27673","0.0-1.0-112.0","false","a,l","l","200","true","200","1","0","0.5","2","-1","1","600","400","white","gray","3","2","2","18.21818181818228","[18.30000000000291,14.5,38.20000000000073,12.599999999998545,16.799999999999272,16.600000000002183,16.599999999998545,16.700000000000728,16.700000000000728,16.599999999998545,16.80000000000291]","11"
"-1","-1","RDK","114","27892","0.0-1.0-113.0","false","a,l","l","200","true","200","1","0","0.5","2","-1","1","600","400","white","gray","3","2","2","16.70000000000012","[17.400000000001455,15.599999999998545,17.299999999999272,16.700000000000728,16.600000000002183,30.899999999997817,2.400000000001455,16.700000000000728,16.799999999999272,16.600000000002183,16.799999999999272,16.599999999998545]","12"
"-1","-1","RDK","115","28107","0.0-1.0-114.0","false","a,l","a","200","true","200","1","180","0.5","2","-1","1","600","400","white","gray","3","2","2","18.200000000000067","[17,42.60000000000218,7.099999999994907,16.80000000000291,16.69999999999709,16.700000000000728,16.600000000002183,16.700000000000728,15.799999999999272,16.399999999997817,17.80000000000291]","11"
"-1","-1","RDK","116","28322","0.0-1.0-115.0","false","a,l","a","200","true","200","1","180","0.5","2","-1","1","600","400","white","gray","3","2","2","18.227272727272727","[17.5,16.100000000002183,16.700000000000728,16.69999999999709,36.49999999999636,13.500000000003638,16.69999999999709,16.700000000000728,16.700000000000728,16.700000000000728,16.700000000000728]","11"
"-1","-1","RDK","117","28540","0.0-1.0-116.0","false","a,l","l","200","true","200","1","0","0.5","2","-1","1","600","400","white","gray","3","2","2","16.699999999999818","[17.700000000000728,15.900000000001455,16.700000000000728,16.69999999999709,16.700000000000728,15.599999999998545,33.30000000000291,1.5999999999985448,16.099999999998545,16.700000000000728,16.700000000000728,16.69999999999709]","12"
"-1","-1","RDK","118","28757","0.0-1.0-117.0","false","a,l","a","200","true","200","1","180","0.5","2","-1","1","600","400","white","gray","3","2","2","18.209090909090843","[17.400000000001455,17.899999999997817,36.10000000000218,11.5,17.400000000001455,16.700000000000728,16.599999999998545,16.700000000000728,16.599999999998545,15.799999999999272,17.599999999998545]","11"
"-1","-1","RDK","119","28975","0.0-1.0-118.0","false","a,l","a","200","true","200","1","180","0.5","2","-1","1","600","400","white","gray","3","2","2","18.15454545454552","[16.799999999999272,15.899999999997817,17,16.700000000000728,40.30000000000291,9.799999999999272,16.599999999998545,16.600000000002183,16.69999999999709,16.700000000000728,16.600000000002183]","11"
"-1","-1","RDK","120","29188","0.0-1.0-119.0","false","a,l","a","200","true","200","1","180","0.5","2","-1","1","600","400","white","gray","3","2","2","18.45","[18.099999999998545,15.900000000001455,17.19999999999709,16.5,16.80000000000291,16.69999999999709,16.600000000002183,36.599999999998545,13.30000000000291,16.799999999999272]","10"
"-1","-1","RDK","121","29391","0.0-1.0-120.0","false","a,l","l","200","true","200","1","0","0.5","2","-1","1","600","400","white","gray","3","2","2","18.172727272727403","[17.299999999999272,15.5,17.000000000003638,16.599999999998545,40,10.099999999998545,16.600000000002183,16.69999999999709,16.700000000000728,16.700000000000728,16.700000000000728]","11"
"-1","-1","RDK","122","29606","0.0-1.0-121.0","false","a,l","l","200","true","200","1","0","0.5","2","-1","1","600","400","white","gray","3","2","2","18.409999999999854","[17.599999999998545,16.700000000000728,16.400000000001455,16.599999999998545,16.799999999999272,16.700000000000728,34.69999999999709,15.200000000000728,16.700000000000728,16.700000000000728]","10"
"-1","-1","RDK","123","29809","0.0-1.0-122.0","false","a,l","l","200","true","200","1","0","0.5","2","-1","1","600","400","white","gray","3","2","2","18.072727272726876","[16.099999999994907,16.30000000000291,16.599999999998545,48.70000000000073,1.7999999999992724,15.599999999998545,17.400000000005093,16.69999999999709,16.700000000000728,16.600000000002183,16.299999999995634]","11"
"-1","-1","RDK","124","30025","0.0-1.0-123.0","false","a,l","l","200","true","200","1","0","0.5","2","-1","1","600","400","white","gray","3","2","2","18.200000000000067","[17.200000000000728,15.700000000000728,17.099999999998545,16.799999999999272,16.700000000000728,16.000000000003638,38.19999999999709,11.5,17.600000000002183,16.69999999999709,16.700000000000728]","11"
"-1","-1","RDK","125","30240","0.0-1.0-124.0","false","a,l","l","200","true","200","1","0","0.5","2","-1","1","600","400","white","gray","3","2","2","20.020000000000074","[17.200000000000728,53.79999999999927,12.5,16,17.399999999997817,16.700000000000728,16.600000000002183,16.200000000000728,16.399999999997817,17.400000000001455]","10"
"-1","-1","RDK","126","30459","0.0-1.0-125.0","false","a,l","a","200","true","200","1","180","0.5","2","-1","1","600","400","white","gray","3","2","2","16.699999999999818","[17.899999999997817,14.700000000000728,17.700000000000728,16.099999999998545,31.600000000002183,9.599999999998545,8.5,17.5,16.69999999999709,16.700000000000728,16.700000000000728,16.700000000000728]","12"
"-1","-1","RDK","127","30672","0.0-1.0-126.0","false","a,l","l","200","true","200","1","0","0.5","2","-1","1","600","400","white","gray","3","2","2","18.459999999999855","[18.200000000000728,15.599999999998545,17.30000000000291,16.69999999999709,16.700000000000728,16.700000000000728,35.599999999998545,14.299999999999272,16.799999999999272,16.700000000000728]","10"
"-1","-1","RDK","128","30879","0.0-1.0-127.0","false","a,l","a","200","true","200","1","180","0.5","2","-1","1","600","400","white","gray","3","2","2","19.839999999999783","[16.19999999999709,16.400000000001455,16.700000000000728,51.20000000000073,15.5,16.700000000000728,16.700000000000728,16.69999999999709,16.600000000002183,15.69999999999709]","10"
"-1","-1","RDK","129","31092","0.0-1.0-128.0","false","a,l","l","200","true","200","1","0","0.5","2","-1","1","600","400","white","gray","3","2","2","16.708333333333638","[17.400000000001455,15.400000000001455,17.599999999998545,16.700000000000728,16.599999999998545,16.600000000002183,27.399999999997817,5.900000000001455,16.599999999998545,16.80000000000291,16.799999999999272,16.700000000000728]","12"
"-1","-1","RDK","130","31306","0.0-1.0-129.0","false","a,l","a","200","true","200","1","180","0.5","2","-1","1","600","400","white","gray","3","2","2","20.433333333333092","[19.899999999997817,57.50000000000364,7.099999999994907,16.80000000000291,16.69999999999709,16.700000000000728,16.700000000000728,16.700000000000728,15.799999999999272]","9"
"-1","-1","RDK","131","31508","0.0-1.0-130.0","false","a,l","l","200","true","200","1","0","0.5","2","-1","1","600","400","white","gray","3","2","2","18.118181818181753","[17.700000000000728,15.5,15.999999999996362,17.30000000000291,16.799999999999272,16.599999999998545,37.20000000000073,12.799999999999272,16.700000000000728,16.599999999998545,16.100000000002183]","11"
"-1","-1","RDK","132","31724","0.0-1.0-131.0","false","a,l","a","200","true","200","1","180","0.5","2","-1","1","600","400","white","gray","3","2","2","18.19090909090896","[17.400000000001455,43,5.999999999996362,17.10000000000582,16.69999999999709,16.700000000000728,15.799999999999272,16.400000000001455,17.799999999995634,16.000000000003638,17.19999999999709]","11"
"-1","-1","RDK","133","31962","0.0-1.0-132.0","false","a,l","l","200","true","200","1","0","0.5","2","-1","1","600","400","white","gray","3","2","2","18.5","[17.299999999999272,15.299999999999272,17.700000000000728,16.5,34.80000000000291,15.299999999999272,16.700000000000728,16.700000000000728,16.69999999999709,16.700000000000728,16.599999999998545,21.700000000000728]","12"
"-1","-1","RDK","134","32175","0.0-1.0-133.0","false","a,l","l","200","true","200","1","0","0.5","2","-1","1","600","400","white","gray","3","2","2","16.708333333333332","[17.700000000000728,15.599999999998545,16.899999999997817,16.80000000000291,16.700000000000728,15.899999999997817,32.099999999998545,1.2000000000043656,17.299999999999272,16.700000000000728,16.799999999995634,16.80000000000291]","12"
"-1","-1","RDK","135","32392","0.0-1.0-134.0","false","a,l","l","200","true","200","1","0","0.5","2","-1","1","600","400","white","gray","3","2","2","20.029999999999927","[26.700000000000728,46.30000000000291,10.599999999994907,16.700000000000728,16.700000000000728,16.700000000000728,16.599999999994907,16.000000000007276,17.39999999999418,16.600000000002183]","10"
"-1","-1","RDK","136","32607","0.0-1.0-135.0","false","a,l","l","200","true","200","1","0","0.5","2","-1","1","600","400","white","gray","3","2","2","18.227272727272396","[18.299999999995634,15,17.000000000003638,15.799999999999272,43.599999999998545,7.299999999999272,16.700000000000728,16.80000000000291,16.599999999998545,16.69999999999709,16.700000000000728]","11"
"-1","-1","RDK","137","32823","0.0-1.0-136.0","false","a,l","a","200","true","200","1","180","0.5","2","-1","1","600","400","white","gray","3","2","2","18.44000000000051","[18.10000000000582,15.299999999995634,17.600000000002183,16.19999999999709,17.200000000004366,16.599999999998545,36.799999999995634,12.200000000004366,17.700000000004366,16.69999999999709]","10"
"-1","-1","RDK","138","33031","0.0-1.0-137.0","false","a,l","a","200","true","200","1","180","0.5","2","-1","1","600","400","white","gray","3","2","2","19.929999999999563","[16,16.39999999999418,16.80000000000291,54.80000000000291,11.799999999995634,16.799999999995634,16.60000000000582,16.700000000004366,16.69999999999709,16.69999999999709]","10"
"-1","-1","RDK","139","33240","0.0-1.0-138.0","false","a,l","l","200","true","200","1","0","0.5","2","-1","1","600","400","white","gray","3","2","2","16.73333333333297","[17.799999999995634,15.200000000004366,17.700000000004366,16.69999999999709,16.700000000004366,16.59999999999127,31.200000000004366,2.5,15.5,17.499999999992724,16.700000000004366,16.69999999999709]","12"
"-1","-1","RDK","140","33458","0.0-1.0-139.0","false","a,l","l","200","true","200","1","0","0.5","2","-1","1","600","400","white","gray","3","2","2","20.029999999999564","[25.69999999999709,43.19999999999709,14.700000000004366,16.69999999999709,16.69999999999709,16.5,16.80000000000291,16.099999999998545,18.400000000001455,15.5]","10"
"-1","-1","RDK","141","33677","0.0-1.0-140.0","false","a,l","l","200","true","200","1","0","0.5","2","-1","1","600","400","white","gray","3","2","2","18.21818181818195","[17.099999999998545,17.099999999998545,16.099999999998545,16.700000000004366,41.099999999998545,8.400000000001455,17,16.599999999998545,16.900000000001455,16.599999999998545,16.80000000000291]","11"
"-1","-1","RDK","142","33891","0.0-1.0-141.0","false","a,l","a","200","true","200","1","180","0.5","2","-1","1","600","400","white","gray","3","2","2","18.209090909091174","[17.30000000000291,15.200000000004366,17.69999999999709,15.69999999999709,17.700000000004366,16.69999999999709,33.200000000004366,16.799999999995634,16.60000000000582,16.59999999999127,16.80000000000291]","11"
"-1","-1","RDK","143","34108","0.0-1.0-142.0","false","a,l","l","200","true","200","1","0","0.5","2","-1","1","600","400","white","gray","3","2","2","18.145454545455074","[17.400000000001455,15.700000000004366,46.599999999998545,4,16.5,16.80000000000291,16.69999999999709,16.700000000004366,16.69999999999709,15.89999999999418,16.60000000000582]","11"
"-1","-1","RDK","144","34327","0.0-1.0-143.0","false","a,l","a","200","true","200","1","180","0.5","2","-1","1","600","400","white","gray","3","2","2","16.691666666666304","[17.69999999999709,15.499999999992724,17.10000000000582,16.700000000004366,16.59999999999127,24.5,9.10000000000582,16.39999999999418,16.700000000004366,16.69999999999709,16.69999999999709,16.60000000000582]","12"
"-1","-1","RDK","145","34542","0.0-1.0-144.0","false","a,l","a","200","true","200","1","180","0.5","2","-1","1","600","400","white","gray","3","2","2","18.200000000000397","[18.10000000000582,43.999999999992724,4.80000000000291,16.5,15.69999999999709,17.80000000000291,16.599999999998545,16.69999999999709,16.200000000004366,16.39999999999418,17.40000000000873]","11"
"-1","-1","RDK","146","34769","0.0-1.0-145.0","false","a,l","a","200","true","200","1","180","0.5","2","-1","1","600","400","white","gray","3","2","2","18.163636363636627","[16.80000000000291,16.19999999999709,16.700000000004366,16.599999999998545,36.80000000000291,13.19999999999709,16.80000000000291,16.599999999998545,16.599999999998545,16.80000000000291,16.69999999999709]","11"
"-1","-1","RDK","147","34974","0.0-1.0-146.0","false","a,l","a","200","true","200","1","180","0.5","2","-1","1","600","400","white","gray","3","2","2","16.763636363635836","[17.799999999995634,16.299999999995634,16.80000000000291,16.700000000004366,16.69999999999709,16.599999999998545,29.69999999999709,3,17.300000000010186,16.69999999999709,16.799999999995634]","11"
"-1","-1","RDK","148","35179","0.0-1.0-147.0","false","a,l","l","200","true","200","1","0","0.5","2","-1","1","600","400","white","gray","3","2","2","18.15454545454519","[17.200000000004366,15,17.5,45.799999999995634,4.099999999998545,16.700000000004366,16.799999999995634,16.60000000000582,16.799999999995634,16.60000000000582,16.59999999999127]","11"
"-1","-1","RDK","149","35391","0.0-1.0-148.0","false","a,l","l","200","true","200","1","0","0.5","2","-1","1","600","400","white","gray","3","2","2","18.43999999999942","[18.09999999999127,16.500000000007276,16.599999999998545,16.69999999999709,16.69999999999709,34.700000000004366,15.19999999999709,16.700000000004366,16.80000000000291,16.39999999999418]","10"
"-1","-1","RDK","150","35593","0.0-1.0-149.0","false","a,l","l","200","true","200","1","0","0.5","2","-1","1","600","400","white","gray","3","2","2","19.91999999999971","[16.099999999998545,54.200000000004366,12.19999999999709,16.599999999998545,16.80000000000291,16.599999999998545,16.69999999999709,17.60000000000582,15.699999999989814,16.700000000004366]","10"
"-1","-1","RDK","151","35809","0.0-1.0-150.0","false","a,l","l","200","true","200","1","0","0.5","2","-1","1","600","400","white","gray","3","2","2","20.030000000000292","[17.30000000000291,16.19999999999709,16.69999999999709,16.700000000004366,54,12.700000000004366,16.69999999999709,16.69999999999709,16.700000000004366,16.599999999998545]","10"
"-1","-1","RDK","152","36027","0.0-1.0-151.0","false","a,l","a","200","true","200","1","180","0.5","2","-1","1","600","400","white","gray","3","2","2","16.691666666666908","[24.400000000001455,18.10000000000582,7.599999999991269,16.900000000001455,16.5,16.80000000000291,16.700000000004366,16.69999999999709,16.799999999995634,15.80000000000291,17.400000000001455,16.599999999998545]","12"
"-1","-1","RDK","153","36247","0.0-1.0-152.0","false","a,l","a","200","true","200","1","180","0.5","2","-1","1","600","400","white","gray","3","2","2","18.199999999999736","[18.099999999998545,15.599999999998545,16.400000000001455,43.099999999998545,6.900000000001455,16.599999999998545,16.700000000004366,16.89999999999418,16.60000000000582,16.799999999995634,16.5]","11"
"-1","-1","RDK","154","36457","0.0-1.0-153.0","false","a,l","l","200","true","200","1","0","0.5","2","-1","1","600","400","white","gray","3","2","2","16.71818181818195","[17.500000000007276,16.30000000000291,16.799999999995634,16.69999999999709,16.599999999998545,16.60000000000582,27.69999999999709,5.599999999998545,15.900000000001455,17.60000000000582,16.59999999999127]","11"
"-1","-1","RDK","155","36660","0.0-1.0-154.0","false","a,l","a","200","true","200","1","180","0.5","2","-1","1","600","400","white","gray","3","2","2","18.118181818182084","[16.200000000004366,15.5,42.19999999999709,7.900000000001455,16.5,16.60000000000582,17.69999999999709,16.69999999999709,16.599999999998545,16.80000000000291,16.599999999998545]","11"
"-1","-1","RDK","156","36877","0.0-1.0-155.0","false","a,l","a","200","true","200","1","180","0.5","2","-1","1","600","400","white","gray","3","2","2","20.030000000000292","[17.39999999999418,16.10000000000582,16.69999999999709,16.700000000004366,50.69999999999709,16.000000000007276,16.29999999998836,17.100000000013097,16.699999999989814,16.60000000000582]","10"
"-1","-1","RDK","157","37093","0.0-1.0-156.0","false","a,l","l","200","true","200","1","0","0.5","2","-1","1","600","400","white","gray","3","2","2","18.227272727273387","[25.900000000001455,18.19999999999709,5.400000000001455,17.5,16.700000000004366,16.69999999999709,16.60000000000582,16.69999999999709,16.400000000001455,33.299999999995634,17.10000000000582]","11"
"-1","-1","RDK","158","37310","0.0-1.0-157.0","false","a,l","a","200","true","200","1","180","0.5","2","-1","1","600","400","white","gray","3","2","2","18.163636363636627","[17.19999999999709,15.80000000000291,17.099999999998545,16.900000000001455,33,16.900000000001455,16.69999999999709,16.69999999999709,16.700000000004366,16.60000000000582,16.19999999999709]","11"
"-1","-1","RDK","159","37525","0.0-1.0-158.0","false","a,l","a","200","true","200","1","180","0.5","2","-1","1","600","400","white","gray","3","2","2","16.708333333333332","[17.200000000004366,32.19999999999709,3.2999999999956344,14.30000000000291,16.69999999999709,16.700000000004366,16.599999999998545,16.799999999995634,16.60000000000582,16.599999999998545,16.69999999999709,16.80000000000291]","12"
"-1","-1","RDK","160","37744","0.0-1.0-159.0","false","a,l","a","200","true","200","1","180","0.5","2","-1","1","600","400","white","gray","3","2","2","20.029999999999564","[17.69999999999709,16.400000000001455,16,59.10000000000582,7.599999999991269,16.60000000000582,16.900000000001455,16.59999999999127,16.700000000004366,16.69999999999709]","10"
"-1","-1","RDK","161","37958","0.0-1.0-160.0","false","a,l","a","200","true","200","1","180","0.5","2","-1","1","600","400","white","gray","3","2","2","16.790909090908826","[18.700000000004366,15.30000000000291,17.39999999999418,17.099999999998545,16.200000000004366,16.599999999998545,31.900000000001455,1.1999999999970896,16.900000000001455,16.599999999998545,16.799999999995634]","11"
"-1","-1","RDK","162","38161","0.0-1.0-161.0","false","a,l","l","200","true","200","1","0","0.5","2","-1","1","600","400","white","gray","3","2","2","19.860000000000582","[16.700000000004366,15.400000000001455,17.39999999999418,50.89999999999418,15.800000000010186,16.799999999995634,16.60000000000582,16.69999999999709,16.69999999999709,15.60000000000582]","10"
"-1","-1","RDK","163","38377","0.0-1.0-162.0","false","a,l","a","200","true","200","1","180","0.5","2","-1","1","600","400","white","gray","3","2","2","16.70000000000012","[17.19999999999709,16.599999999998545,16.5,16.700000000004366,16.599999999998545,16.700000000004366,25.30000000000291,7.599999999991269,17.099999999998545,16.700000000004366,16.69999999999709,16.700000000004366]","12"
"-1","-1","RDK","164","38593","0.0-1.0-163.0","false","a,l","l","200","true","200","1","0","0.5","2","-1","1","600","400","white","gray","3","2","2","18.25454545454572","[19,45.19999999999709,3.1999999999970896,16.599999999998545,16.700000000004366,16.80000000000291,16.599999999998545,16.69999999999709,16.000000000007276,18.39999999999418,15.60000000000582]","11"
"-1","-1","RDK","165","38810","0.0-1.0-164.0","false","a,l","a","200","true","200","1","180","0.5","2","-1","1","600","400","white","gray","3","2","2","18.21818181818195","[17.299999999995634,15.599999999998545,17.300000000010186,15.89999999999418,42.80000000000291,7.299999999995634,17.400000000001455,16.700000000004366,16.69999999999709,16.700000000004366,16.69999999999709]","11"
"-1","-1","RDK","166","39028","0.0-1.0-165.0","false","a,l","l","200","true","200","1","0","0.5","2","-1","1","600","400","white","gray","3","2","2","16.683333333333696","[26.200000000004366,6.900000000001455,17,16.80000000000291,16.69999999999709,16.5,16.799999999995634,15.900000000001455,17.400000000001455,16.69999999999709,16.80000000000291,16.5]","12"
"-1","-1","RDK","167","39244","0.0-1.0-166.0","false","a,l","a","200","true","200","1","180","0.5","2","-1","1","600","400","white","gray","3","2","2","20.029999999999564","[17.5,15.599999999998545,52,14.599999999998545,17.30000000000291,16.700000000004366,16.69999999999709,16.69999999999709,16.700000000004366,16.499999999992724]","10"
"-1","-1","RDK","168","39461","0.0-1.0-167.0","false","a,l","a","200","true","200","1","180","0.5","2","-1","1","600","400","white","gray","3","2","2","18.21818181818195","[17.300000000010186,16.39999999999418,16.69999999999709,16.5,32.700000000004366,17.400000000001455,16.59999999999127,16.700000000004366,16.60000000000582,16.799999999995634,16.69999999999709]","11"
"-1","-1","RDK","169","39678","0.0-1.0-168.0","false","a,l","a","200","true","200","1","180","0.5","2","-1","1","600","400","white","gray","3","2","2","18.209090909091174","[21.69999999999709,31.700000000004366,13.5,16.69999999999709,16.700000000004366,16.599999999998545,16.69999999999709,17.099999999998545,16.30000000000291,16.60000000000582,16.69999999999709]","11"
"-1","-1","RDK","170","39893","0.0-1.0-169.0","false","a,l","l","200","true","200","1","0","0.5","2","-1","1","600","400","white","gray","3","2","2","18.227272727272066","[17.499999999992724,16.10000000000582,16.69999999999709,47.400000000001455,6.19999999999709,13,16.89999999999418,16.60000000000582,16.700000000004366,16.69999999999709,16.69999999999709]","11"
"-1","-1","RDK","171","40111","0.0-1.0-170.0","false","a,l","l","200","true","200","1","0","0.5","2","-1","1","600","400","white","gray","3","2","2","18.21818181818129","[17.19999999999709,16.30000000000291,16.80000000000291,16.69999999999709,16.700000000004366,39.400000000001455,10.499999999992724,16.80000000000291,16.59999999999127,16.700000000004366,16.69999999999709]","11"
"-1","-1","RDK","172","40327","0.0-1.0-171.0","false","a,l","a","200","true","200","1","180","0.5","2","-1","1","600","400","white","gray","3","2","2","18.209090909090513","[17.199999999989814,42.10000000000582,7.5,16.799999999995634,16.700000000004366,16.60000000000582,16.59999999999127,16.900000000001455,16.30000000000291,18,15.599999999998545]","11"
"-1","-1","RDK","173","40547","0.0-1.0-172.0","false","a,l","a","200","true","200","1","180","0.5","2","-1","1","600","400","white","gray","3","2","2","16.650000000000244","[18.099999999998545,14.69999999999709,17.5,15.800000000010186,31.29999999998836,2.8000000000029104,16.30000000000291,17.200000000004366,16.69999999999709,15.599999999998545,17.69999999999709,16.10000000000582]","12"
"-1","-1","RDK","174","40759","0.0-1.0-173.0","false","a,l","l","200","true","200","1","0","0.5","2","-1","1","600","400","white","gray","3","2","2","18.227272727272727","[16.400000000001455,33.599999999998545,17,16.80000000000291,16.69999999999709,16.599999999998545,16.69999999999709,16.30000000000291,17.000000000007276,16.69999999999709,16.69999999999709]","11"
"-1","-1","RDK","175","40978","0.0-1.0-174.0","false","a,l","l","200","true","200","1","0","0.5","2","-1","1","600","400","white","gray","3","2","2","18.209090909090513","[17.200000000004366,15.89999999999418,17.099999999998545,37.60000000000582,12.299999999995634,16.89999999999418,16.60000000000582,16.700000000004366,16.69999999999709,16.69999999999709,16.599999999998545]","11"
"-1","-1","RDK","176","41194","0.0-1.0-175.0","false","a,l","l","200","true","200","1","0","0.5","2","-1","1","600","400","white","gray","3","2","2","16.691666666666908","[17.400000000001455,16,16.80000000000291,16.700000000004366,16.59999999999127,27.500000000007276,5.799999999995634,16.599999999998545,16.799999999995634,16.700000000004366,16.69999999999709,16.700000000004366]","12"
"-1","-1","RDK","177","41410","0.0-1.0-176.0","false","a,l","a","200","true","200","1","180","0.5","2","-1","1","600","400","white","gray","3","2","2","18.12727272727286","[21.299999999995634,28.10000000000582,17.400000000001455,16.69999999999709,15.80000000000291,17.599999999998545,16.700000000004366,16.89999999999418,16.400000000001455,16.5,16]","11"
"-1","-1","RDK","178","41628","0.0-1.0-177.0","false","a,l","a","200","true","200","1","180","0.5","2","-1","1","600","400","white","gray","3","2","2","20.009999999999856","[17.000000000007276,15.69999999999709,17.30000000000291,51.69999999999709,15,15.799999999995634,16.700000000004366,17.599999999998545,16.60000000000582,16.699999999989814]","10"
"-1","-1","RDK","179","41842","0.0-1.0-178.0","false","a,l","l","200","true","200","1","0","0.5","2","-1","1","600","400","white","gray","3","2","2","16.772727272727273","[22.80000000000291,23.89999999999418,3.7000000000043656,17.299999999995634,16.700000000004366,16.69999999999709,16.69999999999709,16.60000000000582,16.30000000000291,16.999999999992724,16.80000000000291]","11"
"-1","-1","RDK","180","42045","0.0-1.0-179.0","false","a,l","l","200","true","200","1","0","0.5","2","-1","1","600","400","white","gray","3","2","2","18.19090909090896","[17.5,16.000000000007276,16.59999999999127,16.599999999998545,40.80000000000291,9.30000000000291,16.5,16.80000000000291,16.69999999999709,16.700000000004366,16.59999999999127]","11"
"-1","-1","RDK","181","42262","0.0-1.0-180.0","false","a,l","a","200","true","200","1","180","0.5","2","-1","1","600","400","white","gray","3","2","2","16.699999999999516","[17.39999999999418,15.799999999995634,17.10000000000582,16.700000000004366,16.29999999998836,16.500000000007276,32.900000000001455,1.0999999999912689,16.200000000004366,17,16.60000000000582,16.799999999995634]","12"
"-1","-1","RDK","182","42478","0.0-1.0-181.0","false","a,l","a","200","true","200","1","180","0.5","2","-1","1","600","400","white","gray","3","2","2","18.21818181818129","[17.30000000000291,16.19999999999709,46.69999999999709,2.6000000000058208,17.299999999995634,16.900000000001455,16.60000000000582,16.699999999989814,16.69999999999709,16.60000000000582,16.799999999995634]","11"
"-1","-1","RDK","183","42695","0.0-1.0-182.0","false","a,l","l","200","true","200","1","0","0.5","2","-1","1","600","400","white","gray","3","2","2","16.70000000000012","[17.099999999998545,15.700000000004366,17.5,16.69999999999709,16.60000000000582,25.299999999995634,7.099999999998545,17.200000000004366,17.19999999999709,16.599999999998545,16.700000000004366,16.69999999999709]","12"
"-1","-1","RDK","184","42919","0.0-1.0-183.0","false","a,l","a","200","true","200","1","180","0.5","2","-1","1","600","400","white","gray","3","2","2","18.145454545454413","[17.599999999998545,43.19999999999709,6.000000000007276,16.89999999999418,16.700000000004366,16.69999999999709,16.700000000004366,16.5,16.999999999992724,26.30000000000291,6]","11"
"-1","-1","RDK","185","43128","0.0-1.0-184.0","false","a,l","a","200","true","200","1","180","0.5","2","-1","1","600","400","white","gray","3","2","2","18.181818181818183","[16.900000000001455,16.299999999995634,16.69999999999709,16.700000000004366,37.000000000007276,12.999999999992724,16.799999999995634,16.60000000000582,16.700000000004366,16.69999999999709,16.599999999998545]","11"
"-1","-1","RDK","186","43345","0.0-1.0-185.0","false","a,l","l","200","true","200","1","0","0.5","2","-1","1","600","400","white","gray","3","2","2","16.691666666666304","[17,16.19999999999709,17.000000000007276,16.59999999999127,16.800000000010186,16.59999999999127,29.5,3.599999999998545,16.80000000000291,16,17.400000000001455,16.799999999995634]","12"
"-1","-1","RDK","187","43562","0.0-1.0-186.0","false","a,l","a","200","true","200","1","180","0.5","2","-1","1","600","400","white","gray","3","2","2","18.136363636363637","[17.69999999999709,21.299999999995634,27,17.599999999998545,16.700000000004366,16.69999999999709,16.700000000004366,16.59999999999127,16.90000000000873,17.599999999998545,14.700000000004366]","11"
"-1","-1","RDK","188","43781","0.0-1.0-187.0","false","a,l","l","200","true","200","1","0","0.5","2","-1","1","600","400","white","gray","3","2","2","18.209090909091174","[17.19999999999709,15.700000000004366,17.299999999995634,16.69999999999709,41.60000000000582,7.69999999999709,17.30000000000291,16.69999999999709,16.700000000004366,16.80000000000291,16.599999999998545]","11"
"-1","-1","RDK","189","43994","0.0-1.0-188.0","false","a,l","l","200","true","200","1","0","0.5","2","-1","1","600","400","white","gray","3","2","2","18.21818181818195","[17.19999999999709,33.900000000001455,15.80000000000291,16.80000000000291,16.69999999999709,16.700000000004366,16.69999999999709,16.30000000000291,16.999999999992724,16.60000000000582,16.69999999999709]","11"
"-1","-1","RDK","190","44212","0.0-1.0-189.0","false","a,l","l","200","true","200","1","0","0.5","2","-1","1","600","400","white","gray","3","2","2","18.209090909090513","[17.200000000004366,16.499999999992724,36.599999999998545,13.30000000000291,16.599999999998545,16.799999999995634,16.700000000004366,16.69999999999709,16.60000000000582,16.599999999998545,16.69999999999709]","11"
"-1","-1","RDK","191","44429","0.0-1.0-190.0","false","a,l","l","200","true","200","1","0","0.5","2","-1","1","600","400","white","gray","3","2","2","18.21818181818129","[16.29999999998836,17.400000000001455,16.700000000004366,16.5,16.799999999995634,37.000000000007276,12,17.69999999999709,15.599999999998545,17.69999999999709,16.700000000004366]","11"
"-1","-1","RDK","192","44653","0.0-1.0-191.0","false","a,l","a","200","true","200","1","180","0.5","2","-1","1","600","400","white","gray","3","2","2","18.145454545454413","[18.099999999998545,42,6.700000000004366,16.799999999995634,16.69999999999709,16.599999999998545,16.69999999999709,16.700000000004366,16.69999999999709,26.200000000004366,6.400000000001455]","11"
"-1","-1","RDK","193","44862","0.0-1.0-192.0","false","a,l","l","200","true","200","1","0","0.5","2","-1","1","600","400","white","gray","3","2","2","16.691666666666304","[17.200000000004366,15.599999999998545,16.89999999999418,16.30000000000291,17.69999999999709,24.400000000001455,9,16.400000000001455,16.80000000000291,16.69999999999709,16.700000000004366,16.59999999999127]","12"
"-1","-1","RDK","194","45080","0.0-1.0-193.0","false","a,l","l","200","true","200","1","0","0.5","2","-1","1","600","400","white","gray","3","2","2","18.018181818182214","[15.299999999995634,41.30000000000291,8.500000000007276,16.69999999999709,16.700000000004366,16.59999999999127,16.700000000004366,16.69999999999709,16.900000000001455,21.10000000000582,11.69999999999709]","11"
"-1","-1","RDK","195","45297","0.0-1.0-194.0","false","a,l","a","200","true","200","1","180","0.5","2","-1","1","600","400","white","gray","3","2","2","18.21818181818195","[17.80000000000291,15.400000000001455,17.199999999989814,16.700000000004366,39.799999999995634,10.10000000000582,16.69999999999709,15.599999999998545,17.700000000004366,16.700000000004366,16.69999999999709]","11"
"-1","-1","RDK","196","45513","0.0-1.0-195.0","false","a,l","a","200","true","200","1","180","0.5","2","-1","1","600","400","white","gray","3","2","2","18.227272727273387","[18.60000000000582,14.39999999999418,17.400000000001455,16.700000000004366,16.59999999999127,16.700000000004366,34.200000000004366,15.799999999995634,16.700000000004366,16.599999999998545,16.80000000000291]","11"
"-1","-1","RDK","197","45728","0.0-1.0-196.0","false","a,l","l","200","true","200","1","0","0.5","2","-1","1","600","400","white","gray","3","2","2","20.129999999999562","[18.09999999999127,15.599999999998545,51.80000000000291,14.900000000001455,17.5,16.799999999995634,16.10000000000582,17.099999999998545,18.099999999998545,15.30000000000291]","10"
"-1","-1","RDK","198","45947","0.0-1.0-197.0","false","a,l","l","200","true","200","1","0","0.5","2","-1","1","600","400","white","gray","3","2","2","18.209090909090513","[17.099999999998545,16.400000000001455,16.80000000000291,16.5,16.29999999998836,34.800000000010186,15.69999999999709,16.69999999999709,16.69999999999709,16.10000000000582,17.19999999999709]","11"
"-1","-1","RDK","199","46163","0.0-1.0-198.0","false","a,l","a","200","true","200","1","180","0.5","2","-1","1","600","400","white","gray","3","2","2","18.21818181818195","[17.099999999998545,42.10000000000582,7.69999999999709,16.700000000004366,16.69999999999709,16.69999999999709,16.599999999998545,16.700000000004366,16.80000000000291,16.39999999999418,16.900000000001455]","11"
"-1","-1","RDK","200","46380","0.0-1.0-199.0","false","a,l","a","200","true","200","1","180","0.5","2","-1","1","600","400","white","gray","3","2","2","18.21818181818195","[17.199999999989814,15.30000000000291,17.80000000000291,15.599999999998545,37.900000000001455,13.10000000000582,16.69999999999709,16.799999999995634,16.700000000004366,16.599999999998545,16.700000000004366]","11"
