rt,key_press,trial_type,trial_index,time_elapsed,internal_node_id,correct,choices,correct_choice,trial_duration,response_ends_trial,number_of_dots,number_of_sets,coherent_direction,coherence,dot_radius,dot_life,move_distance,aperture_width,aperture_height,dot_color,background_color,RDK_type,aperture_type,reinsert_type,frame_rate,frame_rate_array,number_of_frames,
2357,13,text,0,2359,0.0-0.0,,,,,,,,,,,,,,,,,,,,,,,chrome
-1,-1,RDK,1,3566,0.0-1.0-0.0,FALSE,"a,l",l,200,TRUE,200,1,0,0.5,2,-1,1,600,400,white,gray,3,2,2,16.44375,"[17.870000000000346,11.710000000000036,17.389999999999873,19.090000000000146,13.405000000000655,16.854999999999563,16.63000000000011,16.81999999999971,16.700000000000728,16.669999999999163,17.170000000000073,17.015000000000327]",12,
-1,-1,RDK,2,3781,0.0-1.0-1.0,FALSE,"a,l",l,200,TRUE,200,1,0,0.5,2,-1,1,600,400,white,gray,3,2,2,16.7025,"[17.925000000000182,16.149999999999636,16.840000000000146,16.17999999999938,16.660000000000764,17.109999999999673,17.215000000000146,15.734999999999673,17.3100000000004,17.19499999999971,15.5,16.610000000000582]",12,
-1,-1,RDK,3,3997,0.0-1.0-2.0,FALSE,"a,l",l,200,TRUE,200,1,0,0.5,2,-1,1,600,400,white,gray,3,2,2,16.74833333,"[17.26000000000022,17.0600000000004,16.11499999999978,17.844999999999345,15.534999999999854,16.515000000000327,16.799999999999272,16.580000000000837,16.699999999999818,17.534999999999854,16.080000000000837,16.954999999999927]",12,
-1,-1,RDK,4,4214,0.0-1.0-3.0,FALSE,"a,l",a,200,TRUE,200,1,180,0.5,2,-1,1,600,400,white,gray,3,2,2,16.69916667,"[17.11999999999898,16.8050000000012,17.475000000000364,15.714999999999236,18.00500000000011,15.414999999999964,16.585000000000036,17.149999999999636,16.100000000000364,16.67999999999938,16.845000000000255,16.49499999999989]",12,
-1,-1,RDK,5,4430,0.0-1.0-4.0,FALSE,"a,l",a,200,TRUE,200,1,180,0.5,2,-1,1,600,400,white,gray,3,2,2,16.71041667,"[17.285000000000764,17.4399999999996,16.0049999999992,17.485000000000582,15.599999999999454,16.670000000000982,16.86499999999978,16.519999999999527,16.63000000000011,16.764999999999418,16.655000000000655,16.604999999999563]",12,
-1,-1,RDK,6,4648,0.0-1.0-5.0,FALSE,"a,l",a,200,TRUE,200,1,180,0.5,2,-1,1,600,400,white,gray,3,2,2,16.72083333,"[17.140000000000327,17.1899999999996,16.24000000000069,17.49499999999898,15.81500000000051,16.545000000000073,16.655000000000655,16.644999999999527,16.63500000000022,17.474999999999454,16.280000000000655,16.534999999999854]",12,
-1,-1,RDK,7,4864,0.0-1.0-6.0,FALSE,"a,l",l,200,TRUE,200,1,0,0.5,2,-1,1,600,400,white,gray,3,2,2,16.7475,"[16.985000000000582,16.67999999999938,16.75500000000011,16.55499999999938,17.63500000000022,15.9350000000004,16.55999999999949,16.61499999999978,16.650000000000546,16.610000000000582,16.74499999999989,17.24499999999989]",12,
-1,-1,RDK,8,5080,0.0-1.0-7.0,FALSE,"a,l",a,200,TRUE,200,1,180,0.5,2,-1,1,600,400,white,gray,3,2,2,16.71125,"[17.210000000000036,16.349999999999454,16.785000000000764,16.644999999999527,16.68000000000029,16.704999999999927,17.05999999999949,16.295000000000982,17.464999999999236,16.05500000000029,16.550000000000182,16.735000000000582]",12,
-1,-1,RDK,9,5296,0.0-1.0-8.0,FALSE,"a,l",l,200,TRUE,200,1,0,0.5,2,-1,1,600,400,white,gray,3,2,2,16.71409091,"[17.224999999999454,16.36499999999978,16.87500000000091,16.604999999998654,16.69500000000062,16.574999999999818,17.220000000000255,16.229999999999563,16.640000000000327,16.660000000000764,16.764999999999418]",11,
-1,-1,RDK,10,5498,0.0-1.0-9.0,FALSE,"a,l",a,200,TRUE,200,1,180,0.5,2,-1,1,600,400,white,gray,3,2,2,16.51791667,"[14.739999999999782,16.68499999999949,16.51000000000022,16.81500000000051,16.93499999999858,16.530000000000655,16.720000000000255,16.524999999999636,16.655000000000655,16.63000000000011,16.799999999999272,16.670000000000073]",12,
-1,-1,RDK,11,5714,0.0-1.0-10.0,FALSE,"a,l",l,200,TRUE,200,1,0,0.5,2,-1,1,600,400,white,gray,3,2,2,16.69458333,"[16.99499999999898,16.74000000000069,16.80999999999949,16.410000000000764,16.729999999999563,16.61499999999978,16.715000000001055,16.669999999999163,16.585000000000036,17.360000000000582,16.214999999999236,16.49000000000069]",12,
-1,-1,RDK,12,5931,0.0-1.0-11.0,FALSE,"a,l",a,200,TRUE,200,1,180,0.5,2,-1,1,600,400,white,gray,3,2,2,16.71166667,"[17.05500000000029,16.55500000000029,17.5699999999988,15.825000000000728,17.670000000000073,15.760000000000218,18.105000000000473,15.31499999999869,16.49000000000069,16.649999999999636,16.725000000000364,16.81999999999971]",12,
-1,-1,RDK,13,6147,0.0-1.0-12.0,FALSE,"a,l",a,200,TRUE,200,1,180,0.5,2,-1,1,600,400,white,gray,3,2,2,16.61083333,"[15.93499999999949,16.545000000000982,16.875,16.609999999999673,16.56999999999971,16.890000000000327,16.575000000000728,16.724999999998545,16.5600000000004,16.835000000000036,16.44000000000051,16.769999999999527]",12,
-1,-1,RDK,14,6365,0.0-1.0-13.0,FALSE,"a,l",l,200,TRUE,200,1,0,0.5,2,-1,1,600,400,white,gray,3,2,2,16.67875,"[17.609999999999673,15.925000000000182,16.470000000000255,16.74499999999989,16.56500000000051,16.644999999999527,16.789999999999964,16.650000000000546,16.834999999999127,17.37500000000091,15.9399999999996,16.595000000000255]",12,
-1,-1,RDK,15,6582,0.0-1.0-14.0,FALSE,"a,l",a,200,TRUE,200,1,180,0.5,2,-1,1,600,400,white,gray,3,2,2,16.70333333,"[17.00500000000011,16.5649999999996,17.19500000000062,16.2549999999992,16.80500000000029,16.529999999999745,16.704999999999927,16.63499999999931,16.6200000000008,16.69499999999971,16.730000000000473,16.699999999999818]",12,
-1,-1,RDK,16,6798,0.0-1.0-15.0,FALSE,"a,l",a,200,TRUE,200,1,180,0.5,2,-1,1,600,400,white,gray,3,2,2,16.62875,"[16.215000000000146,16.609999999999673,16.674999999999272,16.775000000000546,16.525000000000546,17.419999999999163,16.329999999999927,16.480000000000473,16.50500000000011,16.670000000000073,16.675000000000182,16.664999999999964]",12,
-1,-1,RDK,17,7015,0.0-1.0-16.0,FALSE,"a,l",a,200,TRUE,200,1,180,0.5,2,-1,1,600,400,white,gray,3,2,2,16.71708333,"[17.040000000000873,17.484999999999673,15.914999999999054,16.61500000000069,16.6299999999992,16.700000000000728,16.779999999999745,16.595000000000255,16.470000000000255,16.88500000000022,16.794999999999163,16.69500000000062]",12,
-1,-1,RDK,18,7231,0.0-1.0-17.0,FALSE,"a,l",l,200,TRUE,200,1,0,0.5,2,-1,1,600,400,white,gray,3,2,2,16.71041667,"[17.030000000000655,16.75999999999931,16.585000000000036,16.575000000000728,16.714999999999236,16.68500000000131,16.769999999998618,16.5600000000004,16.69500000000062,16.650000000000546,16.6899999999996,16.80999999999949]",12,
-1,-1,RDK,19,7448,0.0-1.0-18.0,FALSE,"a,l",a,200,TRUE,200,1,180,0.5,2,-1,1,600,400,white,gray,3,2,2,16.71083333,"[17.089999999999236,16.55500000000029,16.594999999999345,16.720000000001164,16.664999999999054,16.829999999999927,16.73999999999978,18.00500000000011,15.289999999999964,16.595000000001164,16.649999999999636,16.795000000000982]",12,
-1,-1,RDK,20,7665,0.0-1.0-19.0,FALSE,"a,l",l,200,TRUE,200,1,0,0.5,2,-1,1,600,400,white,gray,3,2,2,16.67,"[16.599999999998545,16.850000000001273,16.704999999999927,16.459999999998217,16.87500000000091,16.545000000000073,16.659999999999854,16.88500000000022,16.36999999999898,16.8650000000016,16.639999999999418,16.585000000000946]",12,
-1,-1,RDK,21,7881,0.0-1.0-20.0,FALSE,"a,l",a,200,TRUE,200,1,180,0.5,2,-1,1,600,400,white,gray,3,2,2,16.68041667,"[16.86499999999978,17.18000000000211,15.94499999999789,16.600000000000364,16.975000000000364,16.595000000001164,16.589999999998327,16.640000000001237,16.724999999998545,16.770000000000437,16.68000000000029,16.600000000000364]",12,
-1,-1,RDK,22,8098,0.0-1.0-21.0,FALSE,"a,l",a,200,TRUE,200,1,180,0.5,2,-1,1,600,400,white,gray,3,2,2,16.61,"[15.974999999998545,17.1150000000016,16.109999999998763,16.674999999999272,16.660000000001673,16.764999999999418,16.69499999999971,17.69499999999971,15.649999999999636,16.61499999999978,16.600000000000364,16.764999999999418]",12,
-1,-1,RDK,23,8315,0.0-1.0-22.0,FALSE,"a,l",a,200,TRUE,200,1,180,0.5,2,-1,1,600,400,white,gray,3,2,2,16.71041667,"[17.889999999999418,16.235000000000582,16.43999999999869,16.590000000000146,16.61499999999978,16.674999999999272,16.67000000000189,16.61499999999978,16.94000000000051,17.099999999998545,16.13000000000102,16.62499999999818]",12,
-1,-1,RDK,24,8532,0.0-1.0-23.0,FALSE,"a,l",l,200,TRUE,200,1,0,0.5,2,-1,1,600,400,white,gray,3,2,2,16.69666667,"[17.04500000000189,17.43499999999949,15.844999999999345,16.460000000000946,17.529999999998836,16.1150000000016,16.49499999999898,16.729999999999563,16.655000000000655,16.69499999999971,17.2549999999992,16.100000000000364]",12,
-1,-1,RDK,25,8749,0.0-1.0-24.0,FALSE,"a,l",l,200,TRUE,200,1,0,0.5,2,-1,1,600,400,white,gray,3,2,2,16.69458333,"[17.1200000000008,16.540000000000873,16.7450000000008,16.594999999999345,16.73999999999978,16.604999999999563,16.674999999999272,16.88000000000102,16.540000000000873,16.715000000000146,16.654999999998836,16.524999999999636]",12,
-1,-1,RDK,26,8965,0.0-1.0-25.0,FALSE,"a,l",l,200,TRUE,200,1,0,0.5,2,-1,1,600,400,white,gray,3,2,2,16.69625,"[17.204999999999927,16.61499999999978,16.50500000000102,16.600000000000364,16.659999999999854,16.840000000000146,16.61499999999978,16.51000000000022,16.73999999999978,17.295000000000073,16.109999999998763,16.659999999999854]",12,
-1,-1,RDK,27,9181,0.0-1.0-26.0,FALSE,"a,l",a,200,TRUE,200,1,180,0.5,2,-1,1,600,400,white,gray,3,2,2,16.71958333,"[17.085000000000946,16.709999999999127,17.079999999999927,16.149999999999636,16.715000000001965,16.649999999999636,16.704999999999927,16.590000000000146,16.770000000000437,16.594999999999345,17.2450000000008,16.339999999998327]",12,
-1,-1,RDK,28,9399,0.0-1.0-27.0,FALSE,"a,l",a,200,TRUE,200,1,180,0.5,2,-1,1,600,400,white,gray,3,2,2,16.63291667,"[16.26000000000022,16.600000000000364,16.604999999999563,16.715000000000146,16.795000000000073,16.654999999998836,16.575000000000728,17.549999999999272,15.770000000000437,16.63500000000022,16.830000000001746,16.604999999999563]",12,
-1,-1,RDK,29,9615,0.0-1.0-28.0,FALSE,"a,l",l,200,TRUE,200,1,0,0.5,2,-1,1,600,400,white,gray,3,2,2,16.70541667,"[17.725000000000364,15.885000000000218,17.895000000000437,15.574999999998909,16.63500000000022,16.73999999999978,16.590000000000146,16.73999999999978,17.44499999999971,15.9950000000008,16.80500000000029,16.43500000000131]",12,
-1,-1,RDK,30,9831,0.0-1.0-29.0,FALSE,"a,l",l,200,TRUE,200,1,0,0.5,2,-1,1,600,400,white,gray,3,2,2,16.68875,"[17.51000000000022,16.1299999999992,16.704999999999927,16.575000000000728,17.215000000000146,17.2549999999992,15.56500000000051,16.69000000000051,16.959999999999127,16.474999999998545,16.704999999999927,16.480000000001382]",12,
-1,-1,RDK,31,10049,0.0-1.0-30.0,FALSE,"a,l",l,200,TRUE,200,1,0,0.5,2,-1,1,600,400,white,gray,3,2,2,16.70375,"[17.090000000000146,16.56999999999971,16.645000000000437,16.75,16.589999999998327,17.4950000000008,15.914999999999054,16.850000000000364,16.540000000000873,16.700000000000728,16.524999999999636,16.774999999999636]",12,
-1,-1,RDK,32,10266,0.0-1.0-31.0,FALSE,"a,l",l,200,TRUE,200,1,0,0.5,2,-1,1,600,400,white,gray,3,2,2,16.70208333,"[17.030000000000655,16.799999999999272,16.6299999999992,16.670000000000073,16.610000000000582,16.720000000001164,16.599999999998545,16.670000000000073,16.81500000000051,16.979999999999563,16.469999999999345,16.43000000000029]",12,
-1,-1,RDK,33,10481,0.0-1.0-32.0,FALSE,"a,l",a,200,TRUE,200,1,180,0.5,2,-1,1,600,400,white,gray,3,2,2,16.6975,"[17.139999999999418,16.48999999999978,16.700000000000728,17.534999999999854,16.125,16.450000000000728,16.544999999998254,16.635000000002037,16.724999999998545,16.709999999999127,16.765000000001237,16.549999999999272]",12,
-1,-1,RDK,34,10698,0.0-1.0-33.0,FALSE,"a,l",a,200,TRUE,200,1,180,0.5,2,-1,1,600,400,white,gray,3,2,2,16.65291667,"[16.549999999997453,16.665000000002692,16.664999999999054,16.610000000000582,16.654999999998836,17.31500000000051,15.9950000000008,16.839999999998327,16.67500000000109,16.719999999999345,16.4900000000016,16.654999999998836]",12,
-1,-1,RDK,35,10916,0.0-1.0-34.0,FALSE,"a,l",a,200,TRUE,200,1,180,0.5,2,-1,1,600,400,white,gray,3,2,2,16.70875,"[17.639999999999418,16.329999999999927,17.514999999999418,15.6150000000016,16.74499999999898,16.590000000000146,16.645000000000437,16.664999999999054,16.63000000000102,17.045000000000073,16.579999999999927,16.5049999999992]",12,
-1,-1,RDK,36,11132,0.0-1.0-35.0,FALSE,"a,l",a,200,TRUE,200,1,180,0.5,2,-1,1,600,400,white,gray,3,2,2,16.71916667,"[17.05999999999949,16.57499999999891,16.69499999999971,17.6150000000016,16.100000000000364,16.404999999998836,16.579999999999927,16.914999999999054,16.445000000001528,16.590000000000146,16.774999999999636,16.875]",12,
-1,-1,RDK,37,11349,0.0-1.0-36.0,FALSE,"a,l",l,200,TRUE,200,1,0,0.5,2,-1,1,600,400,white,gray,3,2,2,16.65458333,"[16.539999999999054,16.424999999999272,16.730000000001382,16.724999999998545,16.68500000000131,16.659999999999854,16.625,16.844999999999345,16.590000000000146,16.56000000000131,16.729999999997744,16.7400000000016]",12,
-1,-1,RDK,38,11566,0.0-1.0-37.0,FALSE,"a,l",l,200,TRUE,200,1,0,0.5,2,-1,1,600,400,white,gray,3,2,2,16.69916667,"[16.98999999999978,16.570000000001528,17.090000000000146,19.3700000000008,13.599999999998545,16.659999999999854,16.765000000001237,16.654999999998836,17.334999999999127,16.06500000000233,16.57999999999811,16.710000000000946]",12,
-1,-1,RDK,39,11781,0.0-1.0-38.0,FALSE,"a,l",a,200,TRUE,200,1,180,0.5,2,-1,1,600,400,white,gray,3,2,2,16.68227273,"[16.88000000000102,16.44499999999971,16.774999999999636,17.4950000000008,15.94499999999789,16.405000000000655,16.840000000000146,16.715000000000146,16.61999999999898,16.80000000000109,16.585000000000946]",11,
-1,-1,RDK,40,11983,0.0-1.0-39.0,FALSE,"a,l",l,200,TRUE,200,1,0,0.5,2,-1,1,600,400,white,gray,3,2,2,16.59416667,"[15.825000000002547,16.420000000000073,17.459999999999127,15.739999999999782,16.640000000001237,16.864999999997963,16.51000000000022,16.55000000000109,16.94999999999891,16.55000000000109,16.639999999999418,16.979999999999563]",12,
-1,-1,RDK,41,12199,0.0-1.0-40.0,FALSE,"a,l",a,200,TRUE,200,1,180,0.5,2,-1,1,600,400,white,gray,3,2,2,16.70125,"[16.980000000001382,16.664999999999054,16.539999999999054,17.625,15.905000000000655,16.75,16.55500000000029,16.835000000000946,16.534999999999854,16.69999999999891,16.700000000000728,16.625]",12,
-1,-1,RDK,42,12416,0.0-1.0-41.0,FALSE,"a,l",a,200,TRUE,200,1,180,0.5,2,-1,1,600,400,white,gray,3,2,2,16.71083333,"[17.100000000002183,16.544999999998254,16.68500000000131,16.739999999997963,17.845000000001164,15.749999999998181,16.410000000001673,16.610000000000582,16.604999999999563,16.674999999999272,16.62500000000182,16.93999999999869]",12,
-1,-1,RDK,43,12633,0.0-1.0-42.0,FALSE,"a,l",l,200,TRUE,200,1,0,0.5,2,-1,1,600,400,white,gray,3,2,2,16.70666667,"[17.424999999999272,16.6299999999992,16.3799999999992,16.6150000000016,16.729999999999563,16.63000000000102,16.82999999999811,17.415000000000873,15.889999999999418,16.705000000001746,16.649999999999636,16.579999999999927]",12,
-1,-1,RDK,44,12848,0.0-1.0-43.0,FALSE,"a,l",a,200,TRUE,200,1,180,0.5,2,-1,1,600,400,white,gray,3,2,2,16.71136364,"[17.11499999999978,16.654999999998836,16.600000000000364,17.405000000000655,16.01000000000022,16.7549999999992,16.55000000000109,16.69999999999891,16.650000000001455,16.679999999998472,16.704999999999927]",11,
-1,-1,RDK,45,13050,0.0-1.0-44.0,FALSE,"a,l",a,200,TRUE,200,1,180,0.5,2,-1,1,600,400,white,gray,3,2,2,16.53,"[15.109999999998763,16.4950000000008,16.665000000000873,16.88500000000022,17.174999999999272,16.859999999998763,15.820000000001528,17.534999999999854,15.790000000000873,16.734999999998763,16.530000000000655,16.76000000000022]",12,
-1,-1,RDK,46,13267,0.0-1.0-45.0,FALSE,"a,l",a,200,TRUE,200,1,180,0.5,2,-1,1,600,400,white,gray,3,2,2,16.69833333,"[17.710000000000946,15.954999999999927,16.625,16.69499999999971,16.700000000000728,16.674999999999272,16.804999999998472,16.524999999999636,16.765000000001237,17.05999999999949,16.405000000000655,16.460000000000946]",12,
-1,-1,RDK,47,13483,0.0-1.0-46.0,FALSE,"a,l",a,200,TRUE,200,1,180,0.5,2,-1,1,600,400,white,gray,3,2,2,16.71541667,"[17.06999999999789,16.595000000001164,16.75500000000102,17.659999999999854,15.709999999999127,16.835000000000946,16.454999999999927,16.670000000000073,16.725000000000364,16.584999999999127,16.655000000000655,16.86999999999898]",12,
-1,-1,RDK,48,13700,0.0-1.0-47.0,FALSE,"a,l",l,200,TRUE,200,1,0,0.5,2,-1,1,600,400,white,gray,3,2,2,16.62875,"[16.31999999999971,16.450000000000728,16.69499999999789,16.704999999999927,17.325000000002547,15.965000000000146,16.784999999999854,17.344999999999345,16.015000000001237,16.649999999997817,16.55999999999949,16.730000000001382]",12,
-1,-1,RDK,49,13917,0.0-1.0-48.0,FALSE,"a,l",l,200,TRUE,200,1,0,0.5,2,-1,1,600,400,white,gray,3,2,2,16.69708333,"[17.06999999999971,16.80999999999949,16.545000000000073,16.645000000000437,16.56500000000051,16.674999999999272,16.725000000000364,16.67500000000109,16.7549999999992,17.104999999999563,16.195000000001528,16.599999999998545]",12,
-1,-1,RDK,50,14133,0.0-1.0-49.0,FALSE,"a,l",l,200,TRUE,200,1,0,0.5,2,-1,1,600,400,white,gray,3,2,2,16.70708333,"[17.05500000000211,16.69499999999971,16.649999999997817,17.705000000001746,15.784999999999854,16.735000000000582,16.399999999997817,16.725000000002183,16.7549999999992,16.7450000000008,16.539999999999054,16.69499999999971]",12,
-1,-1,RDK,51,14350,0.0-1.0-50.0,FALSE,"a,l",a,200,TRUE,200,1,180,0.5,2,-1,1,600,400,white,gray,3,2,2,16.6875,"[16.955000000001746,16.44999999999891,16.799999999999272,16.725000000000364,16.524999999999636,17.165000000000873,16.2549999999992,17.5049999999992,15.890000000001237,16.640000000001237,16.709999999999127,16.6299999999992]",12,
-1,-1,RDK,52,14567,0.0-1.0-51.0,FALSE,"a,l",a,200,TRUE,200,1,180,0.5,2,-1,1,600,400,white,gray,3,2,2,16.70791667,"[17.054999999998472,16.68500000000131,17.780000000000655,15.639999999999418,16.649999999999636,16.790000000000873,16.5099999999984,16.73999999999978,17.575000000000728,16.12499999999818,16.345000000001164,16.599999999998545]",12,
-1,-1,RDK,53,14783,0.0-1.0-52.0,FALSE,"a,l",l,200,TRUE,200,1,0,0.5,2,-1,1,600,400,white,gray,3,2,2,16.69541667,"[17.00500000000102,16.61499999999978,16.67500000000109,17.654999999998836,15.850000000000364,16.579999999999927,16.69999999999891,16.840000000000146,16.605000000001382,16.709999999999127,16.5,16.610000000000582]",12,
-1,-1,RDK,54,15000,0.0-1.0-53.0,FALSE,"a,l",l,200,TRUE,200,1,0,0.5,2,-1,1,600,400,white,gray,3,2,2,16.69916667,"[17.164999999999054,16.485000000000582,16.715000000000146,16.625,16.695000000001528,16.719999999999345,16.69499999999971,17.225000000000364,16.034999999999854,16.524999999999636,16.80999999999949,16.69499999999971]",12,
-1,-1,RDK,55,15217,0.0-1.0-54.0,FALSE,"a,l",l,200,TRUE,200,1,0,0.5,2,-1,1,600,400,white,gray,3,2,2,16.70833333,"[17.714999999998327,15.94000000000051,17.68499999999949,15.800000000001091,16.625,16.81999999999971,16.5,16.7450000000008,17.404999999998836,16.024999999999636,17.63500000000022,15.605000000001382]",12,
-1,-1,RDK,56,15432,0.0-1.0-55.0,FALSE,"a,l",l,200,TRUE,200,1,0,0.5,2,-1,1,600,400,white,gray,3,2,2,16.74545455,"[17.034999999999854,16.670000000000073,16.715000000000146,16.649999999999636,17.05000000000109,16.584999999999127,16.43000000000029,17.20499999999811,16.18500000000131,16.695000000001528,16.979999999999563]",11,
-1,-1,RDK,57,15635,0.0-1.0-56.0,FALSE,"a,l",l,200,TRUE,200,1,0,0.5,2,-1,1,600,400,white,gray,3,2,2,16.58416667,"[16.18500000000131,16.159999999998035,16.75000000000182,17.48999999999978,15.694999999999709,16.710000000000946,16.614999999997963,16.610000000000582,16.924999999999272,16.595000000002983,16.6299999999992,16.645000000000437]",12,
-1,-1,RDK,58,15851,0.0-1.0-57.0,FALSE,"a,l",a,200,TRUE,200,1,180,0.5,2,-1,1,600,400,white,gray,3,2,2,16.7125,"[17.015000000001237,16.69000000000051,16.729999999997744,17.61499999999978,15.680000000000291,16.760000000002037,16.599999999998545,16.7699999999968,16.510000000002037,17.325000000000728,16.24499999999898,16.610000000000582]",12,
-1,-1,RDK,59,16067,0.0-1.0-58.0,FALSE,"a,l",a,200,TRUE,200,1,180,0.5,2,-1,1,600,400,white,gray,3,2,2,16.69875,"[17.030000000002474,16.529999999998836,16.735000000000582,16.714999999996508,16.750000000003638,17.07999999999811,16.42000000000189,16.37999999999738,16.81999999999971,16.760000000002037,16.459999999999127,16.705000000001746]",12,
-1,-1,RDK,60,16284,0.0-1.0-59.0,FALSE,"a,l",l,200,TRUE,200,1,0,0.5,2,-1,1,600,400,white,gray,3,2,2,16.70791667,"[17.159999999996217,16.6150000000016,16.645000000000437,16.68999999999869,16.595000000001164,16.659999999999854,16.69499999999971,16.825000000000728,17.18999999999869,16.764999999999418,15.910000000003492,16.74499999999898]",12,
-1,-1,RDK,61,16499,0.0-1.0-60.0,FALSE,"a,l",l,200,TRUE,200,1,0,0.5,2,-1,1,600,400,white,gray,3,2,2,16.70590909,"[17.05500000000029,16.669999999998254,16.585000000002765,17.56499999999869,15.965000000000146,16.700000000000728,16.510000000002037,19.044999999998254,14.450000000000728,16.55500000000029,16.664999999997235]",11,
-1,-1,RDK,62,16701,0.0-1.0-61.0,FALSE,"a,l",l,200,TRUE,200,1,0,0.5,2,-1,1,600,400,white,gray,3,2,2,16.53875,"[15.220000000001164,16.49499999999898,16.68999999999869,16.660000000003492,16.649999999997817,17.49499999999898,15.979999999999563,18.150000000001455,15.700000000000728,16.080000000001746,16.75500000000102,16.589999999996508]",12,
-1,-1,RDK,63,16918,0.0-1.0-62.0,FALSE,"a,l",a,200,TRUE,200,1,180,0.5,2,-1,1,600,400,white,gray,3,2,2,16.71583333,"[18.109999999996944,15.610000000000582,16.68999999999869,16.7599999999984,16.6050000000032,16.68000000000029,16.739999999997963,16.475000000002183,16.664999999997235,16.885000000002037,16.609999999996944,16.760000000002037]",12,
-1,-1,RDK,64,17134,0.0-1.0-63.0,FALSE,"a,l",a,200,TRUE,200,1,180,0.5,2,-1,1,600,400,white,gray,3,2,2,16.69916667,"[16.98500000000422,16.709999999999127,16.54500000000189,16.62999999999738,17.525000000001455,15.994999999998981,16.68499999999767,16.665000000000873,16.54500000000189,16.79500000000189,17.469999999997526,15.840000000000146]",12,
-1,-1,RDK,65,17351,0.0-1.0-64.0,FALSE,"a,l",a,200,TRUE,200,1,180,0.5,2,-1,1,600,400,white,gray,3,2,2,16.64625,"[16.214999999996508,16.75500000000102,16.6050000000032,16.665000000000873,16.56499999999869,17.404999999998836,16.085000000002765,17.81499999999869,15.520000000000437,16.779999999998836,16.55500000000029,16.789999999997235]",12,
-1,-1,RDK,66,17568,0.0-1.0-65.0,FALSE,"a,l",l,200,TRUE,200,1,0,0.5,2,-1,1,600,400,white,gray,3,2,2,16.71,"[18.095000000001164,15.8650000000016,16.534999999996217,16.595000000001164,16.63000000000102,16.635000000002037,16.649999999997817,17.12000000000262,16.1349999999984,17.294999999998254,16.215000000000146,16.75]",12,
-1,-1,RDK,67,17785,0.0-1.0-66.0,FALSE,"a,l",a,200,TRUE,200,1,180,0.5,2,-1,1,600,400,white,gray,3,2,2,16.69833333,"[17.05000000000291,16.770000000000437,16.469999999997526,16.80999999999767,17.255000000004657,16.1449999999968,16.635000000002037,16.62999999999738,16.720000000001164,16.650000000001455,16.600000000002183,16.6449999999968]",12,
-1,-1,RDK,68,18001,0.0-1.0-67.0,FALSE,"a,l",l,200,TRUE,200,1,0,0.5,2,-1,1,600,400,white,gray,3,2,2,16.63458333,"[16.349999999998545,16.710000000002765,16.57999999999811,16.75500000000102,16.674999999999272,16.709999999999127,16.590000000000146,17.11999999999898,16.17000000000189,16.7400000000016,16.584999999999127,16.62999999999738]",12,
-1,-1,RDK,69,18219,0.0-1.0-68.0,FALSE,"a,l",a,200,TRUE,200,1,180,0.5,2,-1,1,600,400,white,gray,3,2,2,16.71125,"[17.875,15.724999999998545,16.75,16.674999999999272,16.700000000000728,16.68500000000131,16.649999999997817,16.67500000000291,17.439999999995052,16.335000000002765,17.344999999997526,15.680000000000291]",12,
-1,-1,RDK,70,18434,0.0-1.0-69.0,FALSE,"a,l",l,200,TRUE,200,1,0,0.5,2,-1,1,600,400,white,gray,3,2,2,16.67791667,"[16.784999999996217,17.29500000000189,16.00500000000102,16.525000000001455,17.479999999995925,16.11000000000422,16.590000000000146,16.674999999999272,16.68499999999767,16.81000000000131,16.5199999999968,16.655000000002474]",12,
-1,-1,RDK,71,18651,0.0-1.0-70.0,FALSE,"a,l",l,200,TRUE,200,1,0,0.5,2,-1,1,600,400,white,gray,3,2,2,16.64083333,"[16.42000000000189,16.57999999999811,16.56000000000131,16.70499999999811,16.68000000000029,17.45499999999811,16.084999999999127,17.49500000000262,15.880000000001019,16.584999999999127,16.590000000000146,16.655000000002474]",12,
-1,-1,RDK,72,18868,0.0-1.0-71.0,FALSE,"a,l",a,200,TRUE,200,1,180,0.5,2,-1,1,600,400,white,gray,3,2,2,16.70375,"[17.7599999999984,15.930000000003929,17.89999999999418,15.455000000005384,16.7599999999984,17.919999999998254,15.274999999997817,16.650000000005093,17.479999999995925,16.390000000003056,16.334999999999127,16.590000000000146]",12,
-1,-1,RDK,73,19085,0.0-1.0-72.0,FALSE,"a,l",l,200,TRUE,200,1,0,0.5,2,-1,1,600,400,white,gray,3,2,2,16.70875,"[16.979999999995925,16.735000000000582,16.635000000002037,17.479999999995925,15.920000000001892,16.67000000000189,16.584999999999127,16.709999999999127,16.584999999999127,16.840000000003783,16.62999999999738,16.735000000000582]",12,
-1,-1,RDK,74,19302,0.0-1.0-73.0,FALSE,"a,l",l,200,TRUE,200,1,0,0.5,2,-1,1,600,400,white,gray,3,2,2,16.64375,"[16.284999999999854,16.81499999999869,16.540000000000873,16.69499999999607,16.635000000002037,16.835000000002765,16.57999999999811,16.75,16.69499999999971,16.625,16.56000000000131,16.709999999999127]",12,
-1,-1,RDK,75,19519,0.0-1.0-74.0,FALSE,"a,l",a,200,TRUE,200,1,180,0.5,2,-1,1,600,400,white,gray,3,2,2,16.70916667,"[17.044999999998254,17.260000000002037,17,15.729999999999563,16.56499999999869,16.645000000000437,16.770000000000437,16.595000000001164,16.714999999996508,16.94000000000233,16.424999999999272,16.81999999999971]",12,
-1,-1,RDK,76,19734,0.0-1.0-75.0,FALSE,"a,l",a,200,TRUE,200,1,180,0.5,2,-1,1,600,400,white,gray,3,2,2,16.685,"[16.93000000000393,16.725000000002183,17.039999999997235,16.19000000000233,16.989999999997963,16.485000000000582,16.700000000000728,16.654999999998836,16.68499999999767,16.700000000000728,16.655000000002474,16.465000000000146]",12,
-1,-1,RDK,77,19952,0.0-1.0-76.0,FALSE,"a,l",a,200,TRUE,200,1,180,0.5,2,-1,1,600,400,white,gray,3,2,2,16.69333333,"[17.025000000001455,16.479999999999563,16.655000000002474,16.790000000000873,16.599999999998545,17.5199999999968,15.985000000000582,16.780000000002474,16.544999999998254,16.600000000002183,16.70499999999811,16.635000000002037]",12,
-1,-1,RDK,78,20168,0.0-1.0-77.0,FALSE,"a,l",l,200,TRUE,200,1,0,0.5,2,-1,1,600,400,white,gray,3,2,2,16.69958333,"[17.174999999995634,16.54500000000189,16.82999999999811,16.885000000002037,16.325000000000728,16.664999999997235,16.645000000000437,16.645000000000437,16.610000000000582,17.0099999999984,16.465000000000146,16.595000000004802]",12,
-1,-1,RDK,79,20385,0.0-1.0-78.0,FALSE,"a,l",a,200,TRUE,200,1,180,0.5,2,-1,1,600,400,white,gray,3,2,2,16.70083333,"[17.100000000002183,16.69499999999971,16.609999999996944,17.485000000000582,16.415000000000873,16.13000000000102,16.674999999999272,16.764999999999418,16.530000000002474,16.749999999996362,16.595000000001164,16.659999999999854]",12,
-1,-1,RDK,80,20602,0.0-1.0-79.0,FALSE,"a,l",a,200,TRUE,200,1,180,0.5,2,-1,1,600,400,white,gray,3,2,2,16.6925,"[17.029999999998836,16.62999999999738,16.585000000002765,16.764999999999418,16.639999999999418,16.61999999999898,16.63000000000102,16.904999999998836,16.68000000000393,16.55999999999767,16.595000000001164,16.669999999998254]",12,
-1,-1,RDK,81,20819,0.0-1.0-80.0,FALSE,"a,l",a,200,TRUE,200,1,180,0.5,2,-1,1,600,400,white,gray,3,2,2,16.69666667,"[16.99500000000262,16.614999999997963,17.375,15.840000000000146,16.854999999999563,16.645000000000437,16.639999999999418,16.639999999999418,17.659999999999854,15.770000000004075,17.81499999999869,15.5099999999984]",12,
-1,-1,RDK,82,21036,0.0-1.0-81.0,FALSE,"a,l",l,200,TRUE,200,1,0,0.5,2,-1,1,600,400,white,gray,3,2,2,16.69291667,"[16.94499999999971,16.590000000000146,16.784999999996217,17.424999999999272,16.150000000001455,16.510000000002037,16.57999999999811,16.645000000000437,16.645000000000437,16.715000000000146,16.75,16.575000000000728]",12,
-1,-1,RDK,83,21252,0.0-1.0-82.0,FALSE,"a,l",a,200,TRUE,200,1,180,0.5,2,-1,1,600,400,white,gray,3,2,2,16.68041667,"[16.835000000002765,16.585000000002765,16.649999999997817,16.599999999998545,16.729999999999563,16.95499999999811,16.265000000003056,17.69499999999971,15.994999999998981,16.610000000000582,16.4900000000016,16.75500000000102]",12,
-1,-1,RDK,84,21469,0.0-1.0-83.0,FALSE,"a,l",l,200,TRUE,200,1,0,0.5,2,-1,1,600,400,white,gray,3,2,2,16.70208333,"[16.99499999999898,16.62000000000262,17.68499999999767,15.62000000000262,16.69499999999971,16.61999999999898,16.725000000002183,17.034999999999854,16.479999999995925,17.475000000002183,15.68500000000131,16.790000000000873]",12,
-1,-1,RDK,85,21684,0.0-1.0-84.0,FALSE,"a,l",a,200,TRUE,200,1,180,0.5,2,-1,1,600,400,white,gray,3,2,2,16.69454545,"[16.93499999999767,16.825000000000728,16.530000000002474,16.599999999998545,16.8849999999984,16.56499999999869,16.785000000003492,16.424999999999272,16.764999999999418,16.6150000000016,16.709999999999127]",11,
-1,-1,RDK,86,21886,0.0-1.0-85.0,FALSE,"a,l",l,200,TRUE,200,1,0,0.5,2,-1,1,600,400,white,gray,3,2,2,16.57625,"[15.654999999998836,16.520000000000437,16.709999999999127,16.720000000001164,16.5199999999968,16.81500000000233,16.74499999999898,16.30500000000029,17.31000000000131,16.36999999999898,16.590000000000146,16.655000000002474]",12,
-1,-1,RDK,87,22103,0.0-1.0-86.0,FALSE,"a,l",a,200,TRUE,200,1,180,0.5,2,-1,1,600,400,white,gray,3,2,2,16.71708333,"[17.044999999998254,16.775000000001455,16.369999999995343,16.99500000000262,16.534999999999854,16.780000000002474,16.539999999997235,16.600000000002183,16.604999999999563,16.825000000000728,16.590000000000146,16.94499999999971]",12,
-1,-1,RDK,88,22319,0.0-1.0-87.0,FALSE,"a,l",a,200,TRUE,200,1,180,0.5,2,-1,1,600,400,white,gray,3,2,2,16.68916667,"[16.989999999997963,16.55500000000029,16.724999999998545,16.635000000002037,17.330000000001746,16.375,16.399999999997817,16.700000000000728,16.540000000000873,16.764999999999418,16.67000000000189,16.584999999999127]",12,
-1,-1,RDK,89,22536,0.0-1.0-88.0,FALSE,"a,l",a,200,TRUE,200,1,180,0.5,2,-1,1,600,400,white,gray,3,2,2,16.64708333,"[16.38000000000102,16.625,16.625,16.659999999999854,16.710000000002765,16.68999999999869,16.720000000001164,16.414999999997235,17.475000000002183,16.1349999999984,16.590000000000146,16.739999999997963]",12,
-1,-1,RDK,90,22754,0.0-1.0-89.0,FALSE,"a,l",l,200,TRUE,200,1,0,0.5,2,-1,1,600,400,white,gray,3,2,2,16.75958333,"[16.984999999996944,16.525000000001455,16.68000000000029,16.94499999999971,16.729999999999563,16.404999999998836,16.630000000004657,17.524999999997817,15.899999999997817,16.645000000000437,16.6050000000032,17.539999999997235]",12,
-1,-1,RDK,91,22970,0.0-1.0-90.0,FALSE,"a,l",a,200,TRUE,200,1,180,0.5,2,-1,1,600,400,white,gray,3,2,2,16.71416667,"[16.94499999999971,16.770000000000437,16.635000000002037,16.665000000000873,17.179999999996653,16.145000000004075,17.729999999999563,15.704999999998108,16.56499999999869,16.6150000000016,16.725000000002183,16.889999999999418]",12,
-1,-1,RDK,92,23187,0.0-1.0-91.0,FALSE,"a,l",l,200,TRUE,200,1,0,0.5,2,-1,1,600,400,white,gray,3,2,2,16.63041667,"[16.264999999999418,16.49499999999898,16.729999999999563,16.779999999998836,16.56500000000233,16.659999999999854,16.669999999998254,17.510000000002037,16.31000000000131,16.289999999997235,16.770000000000437,16.520000000000437]",12,
-1,-1,RDK,93,23404,0.0-1.0-92.0,FALSE,"a,l",l,200,TRUE,200,1,0,0.5,2,-1,1,600,400,white,gray,3,2,2,16.71375,"[17.034999999999854,16.520000000000437,17.779999999998836,15.724999999998545,16.655000000002474,16.540000000000873,17.30999999999767,16.575000000000728,16.174999999999272,17.034999999999854,16.400000000001455,16.81499999999869]",12,
-1,-1,RDK,94,23620,0.0-1.0-93.0,FALSE,"a,l",l,200,TRUE,200,1,0,0.5,2,-1,1,600,400,white,gray,3,2,2,16.68666667,"[16.890000000003056,16.62999999999738,16.70499999999811,16.67500000000291,16.835000000002765,16.584999999999127,16.75999999999476,16.665000000000873,16.55500000000029,16.7300000000032,16.50499999999738,16.70499999999811]",12,
-1,-1,RDK,95,23836,0.0-1.0-94.0,FALSE,"a,l",l,200,TRUE,200,1,0,0.5,2,-1,1,600,400,white,gray,3,2,2,16.64166667,"[16.30500000000029,16.659999999999854,16.649999999997817,16.56500000000233,16.705000000001746,16.624999999996362,16.910000000003492,17.429999999996653,15.825000000000728,16.790000000000873,16.395000000000437,16.840000000000146]",12,
-1,-1,RDK,96,24051,0.0-1.0-95.0,FALSE,"a,l",a,200,TRUE,200,1,180,0.5,2,-1,1,600,400,white,gray,3,2,2,16.67954545,"[16.960000000002765,16.599999999998545,17.5099999999984,16.42000000000189,16.19000000000233,16.465000000000146,16.719999999997526,16.63000000000102,16.790000000000873,16.624999999996362,16.56500000000233]",11,
-1,-1,RDK,97,24253,0.0-1.0-96.0,FALSE,"a,l",a,200,TRUE,200,1,180,0.5,2,-1,1,600,400,white,gray,3,2,2,16.55958333,"[15.2599999999984,16.635000000002037,16.575000000000728,16.80500000000029,16.584999999999127,17.25499999999738,16.095000000001164,17.905000000002474,15.684999999997672,16.55000000000291,16.604999999999563,16.7599999999984]",12,
-1,-1,RDK,98,24470,0.0-1.0-97.0,FALSE,"a,l",l,200,TRUE,200,1,0,0.5,2,-1,1,600,400,white,gray,3,2,2,16.69291667,"[17.55500000000029,16.320000000003347,16.68999999999869,16.520000000000437,16.55500000000029,16.88000000000102,16.544999999994616,16.66500000000451,17.68000000000029,15.784999999999854,16.81999999999971,16.299999999999272]",12,
-1,-1,RDK,99,24687,0.0-1.0-98.0,FALSE,"a,l",l,200,TRUE,200,1,0,0.5,2,-1,1,600,400,white,gray,3,2,2,16.71416667,"[17.130000000004657,16.669999999994616,16.56500000000233,16.645000000000437,17.044999999998254,17.30500000000029,15.690000000002328,16.720000000001164,16.62999999999738,16.625000000003638,16.784999999996217,16.760000000002037]",12,
-1,-1,RDK,100,24904,0.0-1.0-99.0,FALSE,"a,l",a,200,TRUE,200,1,180,0.5,2,-1,1,600,400,white,gray,3,2,2,16.695,"[17.0099999999984,16.584999999999127,16.835000000002765,16.5,16.790000000000873,16.599999999998545,16.645000000000437,17.595000000001164,15.8849999999984,16.639999999999418,16.709999999999127,16.54500000000189]",12,
-1,-1,RDK,101,25118,0.0-1.0-100.0,FALSE,"a,l",a,200,TRUE,200,1,180,0.5,2,-1,1,600,400,white,gray,3,2,2,16.81363636,"[17.409999999999854,16.169999999998254,16.7300000000032,16.724999999994907,16.505000000004657,16.674999999999272,16.63999999999578,16.710000000002765,16.5199999999968,17.54500000000189,17.31999999999971]",11,
-1,-1,RDK,102,25320,0.0-1.0-101.0,FALSE,"a,l",l,200,TRUE,200,1,0,0.5,2,-1,1,600,400,white,gray,3,2,2,16.57791667,"[15.585000000002765,16.514999999999418,16.719999999997526,16.735000000000582,16.570000000003347,16.679999999996653,16.840000000003783,16.55500000000029,16.764999999999418,16.63999999999578,16.705000000001746,16.625]",12,
-1,-1,RDK,103,25537,0.0-1.0-102.0,FALSE,"a,l",a,200,TRUE,200,1,180,0.5,2,-1,1,600,400,white,gray,3,2,2,16.62333333,"[16.4800000000032,16.25,16.674999999999272,16.669999999998254,16.67500000000291,16.779999999998836,16.575000000000728,16.549999999999272,16.94499999999971,16.705000000001746,16.484999999996944,16.69000000000233]",12,
-1,-1,RDK,104,25754,0.0-1.0-103.0,FALSE,"a,l",l,200,TRUE,200,1,0,0.5,2,-1,1,600,400,white,gray,3,2,2,16.70875,"[17.06000000000131,17.289999999997235,16.145000000000437,17.409999999999854,15.864999999997963,16.705000000001746,16.56999999999971,16.67500000000291,16.669999999998254,17.5,15.959999999999127,16.655000000002474]",12,
-1,-1,RDK,105,25971,0.0-1.0-104.0,FALSE,"a,l",a,200,TRUE,200,1,180,0.5,2,-1,1,600,400,white,gray,3,2,2,16.70916667,"[17.1150000000016,16.580000000001746,16.6349999999984,16.724999999998545,17.534999999999854,16.005000000004657,16.464999999996508,16.56999999999971,16.709999999999127,16.705000000001746,16.68999999999869,16.775000000001455]",12,
-1,-1,RDK,106,26187,0.0-1.0-105.0,FALSE,"a,l",l,200,TRUE,200,1,0,0.5,2,-1,1,600,400,white,gray,3,2,2,16.62708333,"[16.200000000000728,16.764999999999418,16.529999999998836,16.6150000000016,16.669999999998254,16.75499999999738,16.570000000003347,16.649999999997817,16.92000000000189,16.489999999997963,16.7300000000032,16.63000000000102]",12,
-1,-1,RDK,107,26404,0.0-1.0-106.0,FALSE,"a,l",l,200,TRUE,200,1,0,0.5,2,-1,1,600,400,white,gray,3,2,2,16.72958333,"[17.095000000001164,16.589999999996508,16.640000000003056,17.649999999997817,15.774999999997817,16.709999999999127,16.630000000004657,16.82999999999811,16.584999999999127,16.709999999999127,16.774999999997817,16.765000000003056]",12,
-1,-1,RDK,108,26621,0.0-1.0-107.0,FALSE,"a,l",l,200,TRUE,200,1,0,0.5,2,-1,1,600,400,white,gray,3,2,2,16.69416667,"[16.959999999999127,16.56499999999869,16.585000000002765,16.669999999998254,16.790000000000873,16.82999999999811,16.54500000000189,16.609999999996944,16.655000000002474,16.69499999999971,16.56000000000131,16.864999999997963]",12,
-1,-1,RDK,109,26838,0.0-1.0-108.0,FALSE,"a,l",l,200,TRUE,200,1,0,0.5,2,-1,1,600,400,white,gray,3,2,2,16.72,"[17.525000000001455,16.349999999998545,16.424999999999272,16.81999999999971,16.655000000002474,16.609999999996944,16.845000000001164,16.485000000000582,16.820000000003347,16.63999999999578,16.715000000000146,16.75]",12,
-1,-1,RDK,110,27054,0.0-1.0-109.0,FALSE,"a,l",l,200,TRUE,200,1,0,0.5,2,-1,1,600,400,white,gray,3,2,2,16.71291667,"[16.970000000001164,16.600000000002183,16.549999999999272,17.54500000000189,16.00499999999738,16.760000000002037,16.529999999998836,16.69499999999971,16.715000000000146,17.3849999999984,16.165000000000873,16.635000000002037]",12,
-1,-1,RDK,111,27271,0.0-1.0-110.0,FALSE,"a,l",l,200,TRUE,200,1,0,0.5,2,-1,1,600,400,white,gray,3,2,2,16.70125,"[17.05999999999767,16.485000000000582,16.87000000000262,17.395000000000437,15.76499999999578,16.93500000000131,17.485000000000582,15.694999999999709,16.67000000000189,16.909999999999854,16.43499999999767,16.710000000002765]",12,
-1,-1,RDK,112,27487,0.0-1.0-111.0,FALSE,"a,l",l,200,TRUE,200,1,0,0.5,2,-1,1,600,400,white,gray,3,2,2,16.69541667,"[16.889999999999418,16.785000000003492,16.614999999997963,16.68000000000029,16.6050000000032,16.729999999999563,16.674999999999272,17.56500000000233,15.899999999997817,16.774999999997817,16.44499999999971,16.68000000000393]",12,
-1,-1,RDK,113,27703,0.0-1.0-112.0,FALSE,"a,l",a,200,TRUE,200,1,180,0.5,2,-1,1,600,400,white,gray,3,2,2,16.70454545,"[17.034999999999854,16.749999999996362,16.400000000001455,17.025000000001455,16.544999999998254,16.595000000001164,16.715000000000146,16.575000000000728,16.700000000000728,17.414999999997235,15.99500000000262]",11,
-1,-1,RDK,114,27904,0.0-1.0-113.0,FALSE,"a,l",l,200,TRUE,200,1,0,0.5,2,-1,1,600,400,white,gray,3,2,2,16.565,"[15.479999999999563,16.455000000001746,16.774999999997817,16.75500000000102,16.604999999999563,17.270000000000437,16.11999999999898,17.489999999997963,15.75,16.86000000000422,16.5,16.719999999997526]",12,
-1,-1,RDK,115,28121,0.0-1.0-114.0,FALSE,"a,l",l,200,TRUE,200,1,0,0.5,2,-1,1,600,400,white,gray,3,2,2,16.72208333,"[17.020000000000437,16.975000000002183,16.539999999997235,16.6150000000016,16.589999999996508,16.610000000000582,16.92000000000189,16.56500000000233,16.44999999999709,17.200000000000728,16.280000000002474,16.899999999997817]",12,
-1,-1,RDK,116,28338,0.0-1.0-115.0,FALSE,"a,l",l,200,TRUE,200,1,0,0.5,2,-1,1,600,400,white,gray,3,2,2,16.69291667,"[16.985000000000582,16.724999999998545,16.635000000002037,16.679999999996653,16.905000000002474,16.705000000001746,16.50999999999476,16.625000000003638,16.770000000000437,16.639999999999418,16.625,16.5099999999984]",12,
-1,-1,RDK,117,28555,0.0-1.0-116.0,FALSE,"a,l",l,200,TRUE,200,1,0,0.5,2,-1,1,600,400,white,gray,3,2,2,16.64583333,"[16.459999999999127,16.390000000003056,16.724999999998545,17.534999999999854,15.779999999998836,16.86500000000524,16.63499999999476,16.725000000002183,16.635000000002037,16.68499999999767,16.729999999999563,16.585000000002765]",12,
-1,-1,RDK,118,28771,0.0-1.0-117.0,FALSE,"a,l",l,200,TRUE,200,1,0,0.5,2,-1,1,600,400,white,gray,3,2,2,16.69916667,"[17.075000000004366,16.909999999999854,16.479999999999563,16.679999999996653,16.655000000002474,16.67000000000189,16.625,16.779999999995198,16.575000000004366,16.8949999999968,16.4800000000032,16.56499999999869]",12,
-1,-1,RDK,119,28987,0.0-1.0-118.0,FALSE,"a,l",l,200,TRUE,200,1,0,0.5,2,-1,1,600,400,white,gray,3,2,2,16.68583333,"[17.1449999999968,16.625000000003638,16.61999999999898,16.674999999999272,16.659999999999854,16.645000000000437,16.80000000000291,16.610000000000582,16.57999999999447,16.705000000001746,16.595000000001164,16.56999999999971]",12,
-1,-1,RDK,120,29205,0.0-1.0-119.0,FALSE,"a,l",l,200,TRUE,200,1,0,0.5,2,-1,1,600,400,white,gray,3,2,2,16.70041667,"[17.159999999999854,16.540000000000873,17,16.304999999996653,16.600000000002183,16.75,16.69499999999971,16.799999999999272,16.725000000002183,16.3849999999984,16.720000000001164,16.725000000002183]",12,
-1,-1,RDK,121,29422,0.0-1.0-120.0,FALSE,"a,l",a,200,TRUE,200,1,180,0.5,2,-1,1,600,400,white,gray,3,2,2,16.70958333,"[17.06999999999971,16.604999999999563,16.93000000000029,16.55500000000029,16.63000000000102,16.68499999999767,16.63000000000102,16.650000000001455,16.739999999997963,16.93500000000131,16.465000000000146,16.61999999999898]",12,
-1,-1,RDK,122,29637,0.0-1.0-121.0,FALSE,"a,l",a,200,TRUE,200,1,180,0.5,2,-1,1,600,400,white,gray,3,2,2,16.68166667,"[16.994999999995343,16.655000000002474,16.74499999999898,16.55500000000029,16.80500000000029,16.840000000000146,16.50500000000102,16.715000000000146,16.639999999999418,16.724999999998545,16.570000000003347,16.429999999996653]",12,
-1,-1,RDK,123,29855,0.0-1.0-122.0,FALSE,"a,l",a,200,TRUE,200,1,180,0.5,2,-1,1,600,400,white,gray,3,2,2,16.64333333,"[16.530000000002474,16.544999999998254,17.339999999996508,15.835000000002765,16.715000000000146,16.67000000000189,16.664999999997235,17.520000000000437,15.965000000000146,16.57499999999709,16.655000000002474,16.705000000001746]",12,
-1,-1,RDK,124,30072,0.0-1.0-123.0,FALSE,"a,l",l,200,TRUE,200,1,0,0.5,2,-1,1,600,400,white,gray,3,2,2,20.0365,"[17.450000000000728,16.030000000002474,16.86999999999898,16.68500000000131,16.604999999995925,16.655000000002474,16.49500000000262,41.31999999999971,26.049999999995634,16.205000000001746]",10,
-1,-1,RDK,125,30289,0.0-1.0-124.0,FALSE,"a,l",l,200,TRUE,200,1,0,0.5,2,-1,1,600,400,white,gray,3,2,2,16.70958333,"[18.05500000000029,15.854999999999563,17.275000000001455,16.214999999996508,16.404999999998836,16.575000000004366,16.700000000000728,16.75500000000102,16.5199999999968,16.81499999999869,16.50500000000102,16.840000000000146]",12,
-1,-1,RDK,126,30505,0.0-1.0-125.0,FALSE,"a,l",a,200,TRUE,200,1,180,0.5,2,-1,1,600,400,white,gray,3,2,2,16.68333333,"[16.99499999999898,16.424999999999272,16.850000000002183,16.679999999996653,16.895000000000437,16.375000000003638,16.719999999997526,17.140000000003056,16.18499999999767,16.575000000000728,16.749999999996362,16.610000000000582]",12,
-1,-1,RDK,127,30722,0.0-1.0-126.0,FALSE,"a,l",l,200,TRUE,200,1,0,0.5,2,-1,1,600,400,white,gray,3,2,2,16.67958333,"[16.604999999999563,16.650000000001455,16.709999999999127,16.674999999999272,16.63000000000102,16.709999999999127,16.665000000000873,16.639999999999418,16.674999999999272,17.74499999999898,15.73500000000422,16.714999999996508]",12,
-1,-1,RDK,128,30939,0.0-1.0-127.0,FALSE,"a,l",l,200,TRUE,200,1,0,0.5,2,-1,1,600,400,white,gray,3,2,2,16.70583333,"[17.059999999994034,16.74000000000524,17.485000000000582,15.82499999999709,17.44499999999971,16.040000000000873,16.56000000000131,16.589999999996508,16.67000000000189,16.94499999999971,16.32499999999709,16.785000000003492]",12,
-1,-1,RDK,129,31155,0.0-1.0-128.0,FALSE,"a,l",a,200,TRUE,200,1,180,0.5,2,-1,1,600,400,white,gray,3,2,2,16.70041667,"[17.085000000002765,17.374999999996362,15.895000000000437,16.650000000001455,16.765000000003056,16.609999999996944,16.68500000000131,16.57499999999709,16.655000000002474,16.794999999998254,16.610000000000582,16.705000000001746]",12,
-1,-1,RDK,130,31372,0.0-1.0-129.0,FALSE,"a,l",a,200,TRUE,200,1,180,0.5,2,-1,1,600,400,white,gray,3,2,2,16.70833333,"[16.760000000002037,16.764999999999418,17.594999999997526,15.765000000003056,16.729999999999563,16.68499999999767,16.725000000002183,16.674999999999272,16.55000000000291,16.874999999996362,16.639999999999418,16.735000000000582]",12,
-1,-1,RDK,131,31589,0.0-1.0-130.0,FALSE,"a,l",a,200,TRUE,200,1,180,0.5,2,-1,1,600,400,white,gray,3,2,2,16.7075,"[16.929999999993015,16.910000000003492,17.17500000000291,16.00999999999476,16.785000000003492,16.720000000001164,16.549999999995634,16.73500000000422,16.654999999998836,16.705000000001746,17.45499999999811,15.859999999996944]",12,
-1,-1,RDK,132,31806,0.0-1.0-131.0,FALSE,"a,l",a,200,TRUE,200,1,180,0.5,2,-1,1,600,400,white,gray,3,2,2,16.695,"[16.950000000000728,16.6449999999968,16.6150000000016,16.74500000000262,16.784999999996217,16.710000000002765,16.455000000001746,17.17000000000189,16.999999999992724,15.91000000000713,16.664999999997235,16.69000000000233]",12,
-1,-1,RDK,133,32023,0.0-1.0-132.0,FALSE,"a,l",l,200,TRUE,200,1,0,0.5,2,-1,1,600,400,white,gray,3,2,2,16.79375,"[17.909999999999854,16.000000000007276,16.679999999993015,16.50500000000102,16.685000000004948,16.93999999999869,16.474999999998545,16.66500000000451,16.639999999992142,16.764999999999418,16.705000000001746,17.55500000000393]",12,
-1,-1,RDK,134,32239,0.0-1.0-133.0,FALSE,"a,l",a,200,TRUE,200,1,180,0.5,2,-1,1,600,400,white,gray,3,2,2,16.70166667,"[17.869999999995343,15.74500000000262,16.74500000000262,16.459999999999127,16.86000000000422,16.744999999995343,17.67500000000291,15.694999999999709,16.654999999998836,16.75499999999738,16.724999999998545,16.49000000000524]",12,
-1,-1,RDK,135,32456,0.0-1.0-134.0,FALSE,"a,l",a,200,TRUE,200,1,180,0.5,2,-1,1,600,400,white,gray,3,2,2,16.65666667,"[16.595000000001164,16.414999999993597,16.750000000007276,16.729999999995925,16.669999999998254,16.74000000000524,16.510000000002037,16.849999999998545,16.564999999995052,16.635000000002037,16.770000000004075,16.64999999999418]",12,
-1,-1,RDK,136,32673,0.0-1.0-135.0,FALSE,"a,l",a,200,TRUE,200,1,180,0.5,2,-1,1,600,400,white,gray,3,2,2,16.7075,"[17.654999999998836,16.270000000004075,16.30500000000029,16.82499999999709,17.814999999995052,15.360000000007858,16.814999999995052,16.54500000000553,16.584999999999127,16.889999999992142,16.735000000007858,16.689999999995052]",12,
-1,-1,RDK,137,32888,0.0-1.0-136.0,FALSE,"a,l",a,200,TRUE,200,1,180,0.5,2,-1,1,600,400,white,gray,3,2,2,16.70318182,"[17.049999999995634,16.84500000000844,16.554999999993015,16.635000000002037,16.840000000003783,16.665000000000873,16.67500000000291,16.489999999997963,16.714999999996508,16.74000000000524,16.52499999999418]",11,
-1,-1,RDK,138,33090,0.0-1.0-137.0,FALSE,"a,l",a,200,TRUE,200,1,180,0.5,2,-1,1,600,400,white,gray,3,2,2,16.53791667,"[15.249999999992724,16.460000000006403,16.705000000001746,16.59999999999127,16.78500000001077,17.484999999993306,16.654999999998836,16.220000000001164,16.24500000000262,16.68000000000029,16.69499999999971,16.674999999995634]",12,
-1,-1,RDK,139,33305,0.0-1.0-138.0,FALSE,"a,l",l,200,TRUE,200,1,0,0.5,2,-1,1,600,400,white,gray,3,2,2,16.71227273,"[17.044999999998254,16.68000000000029,16.779999999998836,17.470000000001164,15.894999999996799,16.69499999999971,16.710000000006403,16.469999999993888,17.270000000004075,16.93499999999767,15.885000000002037]",11,
-1,-1,RDK,140,33506,0.0-1.0-139.0,FALSE,"a,l",l,200,TRUE,200,1,0,0.5,2,-1,1,600,400,white,gray,3,2,2,16.52791667,"[15.044999999998254,17.830000000001746,16.56500000000233,15.494999999995343,16.68000000000029,16.764999999999418,16.7300000000032,17.31999999999971,16.00499999999738,16.784999999996217,16.505000000004657,16.610000000000582]",12,
-1,-1,RDK,141,33723,0.0-1.0-140.0,FALSE,"a,l",a,200,TRUE,200,1,180,0.5,2,-1,1,600,400,white,gray,3,2,2,16.71291667,"[17.25,16.5199999999968,16.640000000006694,16.660000000003492,16.794999999990978,16.675000000010186,16.82499999999709,16.37000000000262,16.68000000000029,16.604999999995925,16.68000000000029,16.8550000000032]",12,
-1,-1,RDK,142,33940,0.0-1.0-141.0,FALSE,"a,l",a,200,TRUE,200,1,180,0.5,2,-1,1,600,400,white,gray,3,2,2,16.71208333,"[17.05500000000029,16.710000000006403,16.69999999999709,16.580000000001746,16.839999999996508,16.72500000000582,16.584999999999127,16.619999999995343,16.595000000001164,16.820000000006985,16.754999999990105,16.55999999999767]",12,
-1,-1,RDK,143,34157,0.0-1.0-142.0,FALSE,"a,l",a,200,TRUE,200,1,180,0.5,2,-1,1,600,400,white,gray,3,2,2,16.70541667,"[17.05000000000291,16.735000000000582,16.564999999995052,16.645000000004075,16.69000000000233,16.69999999999709,16.62999999999738,16.834999999999127,16.54500000000553,16.75999999999476,16.575000000004366,16.735000000000582]",12,
-1,-1,RDK,144,34374,0.0-1.0-143.0,FALSE,"a,l",l,200,TRUE,200,1,0,0.5,2,-1,1,600,400,white,gray,3,2,2,16.70666667,"[16.985000000000582,16.544999999998254,17.49500000000262,15.934999999997672,16.93000000000029,17.239999999997963,16.56500000000233,15.934999999997672,17.465000000003783,15.884999999994761,16.805000000007567,16.69499999999971]",12,
-1,-1,RDK,145,34589,0.0-1.0-144.0,FALSE,"a,l",a,200,TRUE,200,1,180,0.5,2,-1,1,600,400,white,gray,3,2,2,16.69833333,"[17.014999999999418,16.72500000000582,17.309999999990396,16.840000000003783,15.790000000000873,16.584999999999127,16.67500000000291,16.69999999999709,16.650000000001455,16.775000000001455,16.68000000000029,16.635000000002037]",12,
-1,-1,RDK,146,34807,0.0-1.0-145.0,FALSE,"a,l",l,200,TRUE,200,1,0,0.5,2,-1,1,600,400,white,gray,3,2,2,16.6925,"[16.94999999999709,16.67500000000291,18.37999999999738,14.910000000003492,16.514999999999418,17.229999999995925,16.38499999999476,16.54500000000553,16.64999999999418,16.770000000004075,16.705000000001746,16.595000000001164]",12,
-1,-1,RDK,147,35024,0.0-1.0-146.0,FALSE,"a,l",l,200,TRUE,200,1,0,0.5,2,-1,1,600,400,white,gray,3,2,2,16.71666667,"[17.665000000000873,16.010000000002037,17.580000000001746,15.854999999995925,16.68000000000029,16.665000000000873,16.669999999998254,16.5199999999968,17.40000000000873,16.15499999999156,17.645000000004075,15.75499999999738]",12,
-1,-1,RDK,148,35240,0.0-1.0-147.0,FALSE,"a,l",a,200,TRUE,200,1,180,0.5,2,-1,1,600,400,white,gray,3,2,2,16.68625,"[16.74500000000262,16.594999999993888,16.830000000009022,16.554999999993015,16.755000000004657,17.669999999998254,15.640000000006694,16.75999999999476,16.660000000003492,16.50999999999476,16.845000000001164,16.669999999998254]",12,
-1,-1,RDK,149,35457,0.0-1.0-148.0,FALSE,"a,l",l,200,TRUE,200,1,0,0.5,2,-1,1,600,400,white,gray,3,2,2,16.66583333,"[16.604999999995925,16.540000000000873,16.665000000000873,16.720000000001164,16.64999999999418,17.209999999999127,16.280000000006112,16.719999999993888,16.655000000006112,16.584999999999127,16.754999999990105,16.605000000010477]",12,
-1,-1,RDK,150,35673,0.0-1.0-149.0,FALSE,"a,l",l,200,TRUE,200,1,0,0.5,2,-1,1,600,400,white,gray,3,2,2,16.70041667,"[17.070000000006985,16.549999999995634,16.87999999999738,16.339999999996508,16.84500000000844,16.68000000000029,16.57499999999709,16.895000000004075,16.424999999995634,16.74500000000262,16.720000000001164,16.68000000000029]",12,
-1,-1,RDK,151,35891,0.0-1.0-150.0,FALSE,"a,l",l,200,TRUE,200,1,0,0.5,2,-1,1,600,400,white,gray,3,2,2,16.65125,"[15.494999999995343,16.74000000000524,16.639999999992142,17.29500000000553,16.244999999995343,17.724999999998545,15.639999999999418,16.630000000004657,16.6050000000032,16.549999999995634,16.709999999999127,17.540000000000873]",12,
-1,-1,RDK,152,36108,0.0-1.0-151.0,FALSE,"a,l",l,200,TRUE,200,1,0,0.5,2,-1,1,600,400,white,gray,3,2,2,16.69,"[17.50499999999738,16.010000000002037,16.755000000004657,16.594999999993888,16.74500000000262,16.775000000001455,16.43000000000029,16.764999999999418,16.87000000000262,17.095000000001164,16.129999999990105,16.605000000010477]",12,
-1,-1,RDK,153,36324,0.0-1.0-152.0,FALSE,"a,l",l,200,TRUE,200,1,0,0.5,2,-1,1,600,400,white,gray,3,2,2,16.7175,"[17.22499999999127,16.460000000006403,17.06999999999971,16.234999999993306,16.610000000000582,16.805000000007567,16.614999999990687,16.950000000004366,16.544999999998254,16.470000000001164,16.845000000001164,16.779999999998836]",12,
-1,-1,RDK,154,36540,0.0-1.0-153.0,FALSE,"a,l",a,200,TRUE,200,1,180,0.5,2,-1,1,600,400,white,gray,3,2,2,16.68333333,"[16.92500000000291,16.714999999996508,16.535000000003492,16.74000000000524,16.614999999990687,16.72000000000844,16.794999999990978,16.625000000007276,16.69999999999709,16.589999999996508,16.56999999999971,16.67000000000553]",12,
-1,-1,RDK,155,36758,0.0-1.0-154.0,FALSE,"a,l",a,200,TRUE,200,1,180,0.5,2,-1,1,600,400,white,gray,3,2,2,16.70166667,"[17.63499999999476,16.010000000002037,16.595000000001164,16.654999999998836,16.625,18.055000000007567,15.369999999995343,16.7300000000032,17.80999999999767,15.689999999995052,16.489999999997963,16.755000000004657]",12,
-1,-1,RDK,156,36974,0.0-1.0-155.0,FALSE,"a,l",a,200,TRUE,200,1,180,0.5,2,-1,1,600,400,white,gray,3,2,2,16.7,"[17.05500000000029,16.49500000000262,16.744999999995343,16.66500000000815,16.75,16.594999999993888,16.755000000004657,16.534999999996217,16.86500000000524,17.400000000001455,15.82499999999709,16.714999999996508]",12,
-1,-1,RDK,157,37191,0.0-1.0-156.0,FALSE,"a,l",l,200,TRUE,200,1,0,0.5,2,-1,1,600,400,white,gray,3,2,2,16.70875,"[17.080000000001746,16.63499999999476,16.724999999998545,16.654999999998836,17.810000000004948,15.760000000002037,16.5199999999968,16.764999999999418,16.68499999999767,16.62000000000262,16.55500000000029,16.69499999999971]",12,
-1,-1,RDK,158,37407,0.0-1.0-157.0,FALSE,"a,l",a,200,TRUE,200,1,180,0.5,2,-1,1,600,400,white,gray,3,2,2,16.6975,"[16.905000000006112,16.80000000000291,17.034999999996217,16.30000000000291,16.654999999998836,16.739999999997963,16.739999999997963,16.505000000004657,17.109999999993306,16.404999999998836,16.595000000001164,16.580000000001746]",12,
-1,-1,RDK,159,37622,0.0-1.0-158.0,FALSE,"a,l",a,200,TRUE,200,1,180,0.5,2,-1,1,600,400,white,gray,3,2,2,16.70636364,"[17.229999999995925,16.540000000000873,16.919999999998254,16.54500000000553,17.209999999999127,16.110000000000582,16.610000000000582,16.57499999999709,16.760000000002037,16.6449999999968,16.625]",11,
-1,-1,RDK,160,37824,0.0-1.0-159.0,FALSE,"a,l",a,200,TRUE,200,1,180,0.5,2,-1,1,600,400,white,gray,3,2,2,16.5425,"[15.094999999993888,16.604999999995925,16.640000000006694,16.834999999999127,16.669999999998254,17.594999999993888,15.875000000007276,16.5199999999968,16.780000000006112,16.669999999998254,16.419999999990978,16.805000000007567]",12,
-1,-1,RDK,161,38041,0.0-1.0-160.0,FALSE,"a,l",a,200,TRUE,200,1,180,0.5,2,-1,1,600,400,white,gray,3,2,2,16.70208333,"[17.090000000003783,16.729999999995925,16.564999999995052,16.605000000010477,16.734999999993306,16.834999999999127,16.599999999998545,16.834999999999127,16.515000000006694,16.679999999993015,16.834999999999127,16.40000000000873]",12,
-1,-1,RDK,162,38259,0.0-1.0-161.0,FALSE,"a,l",l,200,TRUE,200,1,0,0.5,2,-1,1,600,400,white,gray,3,2,2,16.74041667,"[17.1449999999968,16.62000000000262,16.57499999999709,16.655000000006112,16.845000000001164,16.764999999999418,16.464999999996508,16.64999999999418,16.61500000000524,16.660000000003492,16.914999999993597,16.97500000000582]",12,
-1,-1,RDK,163,38475,0.0-1.0-162.0,FALSE,"a,l",a,200,TRUE,200,1,180,0.5,2,-1,1,600,400,white,gray,3,2,2,16.6275,"[16.2300000000032,16.364999999990687,16.825000000004366,16.584999999999127,17.205000000001746,16.89999999999418,16.000000000007276,17.330000000001746,16.054999999993015,16.78500000001077,16.699999999989814,16.55000000000291]",12,
-1,-1,RDK,164,38690,0.0-1.0-163.0,FALSE,"a,l",a,200,TRUE,200,1,180,0.5,2,-1,1,600,400,white,gray,3,2,2,16.72363636,"[17.160000000003492,16.57499999999709,16.7699999999968,16.650000000001455,16.50499999999738,16.835000000006403,16.59999999999127,16.655000000006112,17.52499999999418,16.29000000000815,16.3949999999968]",11,
-1,-1,RDK,165,38892,0.0-1.0-164.0,FALSE,"a,l",l,200,TRUE,200,1,0,0.5,2,-1,1,600,400,white,gray,3,2,2,16.52583333,"[14.99500000000262,16.544999999998254,16.770000000004075,16.4800000000032,16.910000000003492,16.489999999990687,16.669999999998254,17.54000000000815,16.52499999999418,16.070000000006985,16.57999999999447,16.735000000000582]",12,
-1,-1,RDK,166,39108,0.0-1.0-165.0,FALSE,"a,l",l,200,TRUE,200,1,0,0.5,2,-1,1,600,400,white,gray,3,2,2,16.70083333,"[17.150000000001455,16.604999999995925,16.720000000001164,16.610000000000582,16.87999999999738,16.49000000000524,16.6449999999968,16.68000000000029,16.69499999999971,16.770000000004075,16.689999999995052,16.474999999998545]",12,
-1,-1,RDK,167,39325,0.0-1.0-166.0,FALSE,"a,l",a,200,TRUE,200,1,180,0.5,2,-1,1,600,400,white,gray,3,2,2,16.70958333,"[17.30500000000029,16.435000000004948,16.654999999998836,17.75,15.614999999997963,16.635000000002037,16.705000000001746,17.150000000001455,16.364999999997963,16.50999999999476,16.660000000003492,16.729999999995925]",12,
-1,-1,RDK,168,39542,0.0-1.0-167.0,FALSE,"a,l",l,200,TRUE,200,1,0,0.5,2,-1,1,600,400,white,gray,3,2,2,16.72791667,"[16.914999999993597,16.625,16.6050000000032,16.785000000003492,17.654999999998836,15.805000000000291,16.534999999996217,16.6050000000032,16.844999999993888,17.505000000004657,15.669999999998254,17.18499999999767]",12,
-1,-1,RDK,169,39759,0.0-1.0-168.0,FALSE,"a,l",a,200,TRUE,200,1,180,0.5,2,-1,1,600,400,white,gray,3,2,2,16.62916667,"[16.19999999999709,16.544999999998254,16.80500000000029,16.55000000000291,16.910000000003492,16.610000000000582,16.494999999995343,16.6050000000032,17.119999999995343,16.325000000004366,16.775000000001455,16.610000000000582]",12,
-1,-1,RDK,170,39973,0.0-1.0-169.0,FALSE,"a,l",a,200,TRUE,200,1,180,0.5,2,-1,1,600,400,white,gray,3,2,2,16.715,"[17.064999999995052,16.875000000007276,16.354999999995925,16.875,16.625,16.87999999999738,16.5199999999968,16.785000000003492,16.43499999999767,16.695000000006985,16.75499999999738]",11,
-1,-1,RDK,171,40175,0.0-1.0-170.0,FALSE,"a,l",a,200,TRUE,200,1,180,0.5,2,-1,1,600,400,white,gray,3,2,2,16.5525,"[15.184999999997672,16.514999999999418,16.67500000000291,16.55999999999767,16.839999999996508,16.465000000003783,16.80500000000029,16.700000000004366,16.719999999993888,16.619999999995343,16.880000000004657,16.665000000000873]",12,
-1,-1,RDK,172,40392,0.0-1.0-171.0,FALSE,"a,l",l,200,TRUE,200,1,0,0.5,2,-1,1,600,400,white,gray,3,2,2,16.68916667,"[17.629999999990105,15.770000000004075,16.849999999998545,18.040000000000873,15.430000000000291,16.49500000000262,16.624999999992724,16.750000000007276,16.624999999992724,16.67500000000291,16.760000000002037,16.619999999995343]",12,
-1,-1,RDK,173,40608,0.0-1.0-172.0,FALSE,"a,l",a,200,TRUE,200,1,180,0.5,2,-1,1,600,400,white,gray,3,2,2,16.69375,"[17.044999999990978,16.67000000000553,16.56999999999971,16.69999999999709,16.854999999995925,17.785000000003492,15.389999999999418,16.69000000000233,16.81500000000233,16.6449999999968,16.69499999999971,16.465000000003783]",12,
-1,-1,RDK,174,40823,0.0-1.0-173.0,FALSE,"a,l",l,200,TRUE,200,1,0,0.5,2,-1,1,600,400,white,gray,3,2,2,16.80909091,"[17.17500000000291,16.514999999999418,16.739999999997963,16.56500000000233,16.689999999995052,16.610000000000582,16.590000000003783,16.82999999999447,16.724999999998545,17.455000000009022,17.00499999999738]",11,
-1,-1,RDK,175,41025,0.0-1.0-174.0,FALSE,"a,l",l,200,TRUE,200,1,0,0.5,2,-1,1,600,400,white,gray,3,2,2,16.58125,"[15.540000000000873,16.544999999998254,16.87999999999738,17.43000000000029,16.114999999997963,16.445000000006985,16.614999999990687,16.900000000001455,16.435000000004948,17.284999999996217,16.280000000006112,16.50499999999738]",12,
-1,-1,RDK,176,41243,0.0-1.0-175.0,FALSE,"a,l",l,200,TRUE,200,1,0,0.5,2,-1,1,600,400,white,gray,3,2,2,16.68833333,"[16.81500000000233,16.610000000000582,16.68000000000029,16.74500000000262,17.549999999995634,15.955000000001746,16.604999999995925,16.540000000000873,16.840000000003783,16.654999999998836,16.664999999993597,16.60000000000582]",12,
-1,-1,RDK,177,41459,0.0-1.0-176.0,FALSE,"a,l",l,200,TRUE,200,1,0,0.5,2,-1,1,600,400,white,gray,3,2,2,16.71125,"[17.18000000000029,16.604999999995925,17.80500000000029,15.47500000000582,17.525000000001455,15.974999999991269,16.515000000006694,16.49500000000262,16.900000000001455,16.72999999998865,16.71500000001106,16.614999999990687]",12,
-1,-1,RDK,178,41673,0.0-1.0-177.0,FALSE,"a,l",a,200,TRUE,200,1,180,0.5,2,-1,1,600,400,white,gray,3,2,2,16.69772727,"[17.029999999998836,16.744999999995343,16.375,17.57499999999709,16.1050000000032,16.584999999999127,16.640000000006694,16.599999999998545,16.479999999995925,17.364999999997963,16.17500000000291]",11,
-1,-1,RDK,179,41876,0.0-1.0-178.0,FALSE,"a,l",a,200,TRUE,200,1,180,0.5,2,-1,1,600,400,white,gray,3,2,2,16.56333333,"[15.17500000000291,17.05500000000029,16.2699999999968,16.654999999998836,16.700000000004366,17.479999999995925,15.965000000003783,17.294999999998254,16.20499999999447,16.67000000000553,16.679999999993015,16.610000000000582]",12,
-1,-1,RDK,180,42093,0.0-1.0-179.0,FALSE,"a,l",l,200,TRUE,200,1,0,0.5,2,-1,1,600,400,white,gray,3,2,2,16.71166667,"[17.110000000007858,16.484999999993306,16.724999999998545,16.7300000000032,16.590000000003783,16.57999999999447,16.590000000003783,16.75499999999738,16.785000000003492,16.659999999996217,16.709999999999127,16.820000000006985]",12,
-1,-1,RDK,181,42308,0.0-1.0-180.0,FALSE,"a,l",l,200,TRUE,200,1,0,0.5,2,-1,1,600,400,white,gray,3,2,2,16.69583333,"[17.195000000006985,16.709999999999127,16.6449999999968,16.489999999997963,17,16.635000000002037,16.489999999997963,17.60000000000582,15.674999999995634,16.760000000002037,16.854999999995925,16.29500000000553]",12,
-1,-1,RDK,182,42526,0.0-1.0-181.0,FALSE,"a,l",a,200,TRUE,200,1,180,0.5,2,-1,1,600,400,white,gray,3,2,2,16.70625,"[17.099999999998545,16.360000000000582,16.775000000001455,16.790000000000873,16.540000000000873,16.75,16.549999999995634,16.755000000004657,16.75999999999476,16.61500000000524,17.44999999999709,16.029999999998836]",12,
-1,-1,RDK,183,42742,0.0-1.0-182.0,FALSE,"a,l",l,200,TRUE,200,1,0,0.5,2,-1,1,600,400,white,gray,3,2,2,16.70541667,"[17.584999999999127,15.985000000000582,17.479999999995925,16.770000000004075,16.389999999999418,16.87999999999738,15.864999999997963,16.635000000002037,17.56999999999971,15.855000000003201,17.5,15.94999999999709]",12,
-1,-1,RDK,184,42957,0.0-1.0-183.0,FALSE,"a,l",l,200,TRUE,200,1,0,0.5,2,-1,1,600,400,white,gray,3,2,2,16.71636364,"[17.174999999995634,16.6050000000032,16.69000000000233,16.57999999999447,16.770000000004075,16.660000000003492,16.729999999995925,16.715000000003783,16.469999999993888,16.68499999999767,16.80000000000291]",11,
-1,-1,RDK,185,43160,0.0-1.0-184.0,FALSE,"a,l",l,200,TRUE,200,1,0,0.5,2,-1,1,600,400,white,gray,3,2,2,16.63375,"[15.430000000000291,16.55999999999767,16.7300000000032,16.625,16.790000000000873,16.635000000002037,16.724999999998545,16.60000000000582,16.720000000001164,16.639999999992142,16.635000000002037,17.514999999999418]",12,
-1,-1,RDK,186,43375,0.0-1.0-185.0,FALSE,"a,l",a,200,TRUE,200,1,180,0.5,2,-1,1,600,400,white,gray,3,2,2,16.71125,"[17.18499999999767,16.525000000001455,16.68499999999767,16.665000000000873,16.764999999999418,17.30999999999767,16.950000000004366,15.634999999994761,16.700000000004366,16.82499999999709,16.505000000004657,16.785000000003492]",12,
-1,-1,RDK,187,43592,0.0-1.0-186.0,FALSE,"a,l",a,200,TRUE,200,1,180,0.5,2,-1,1,600,400,white,gray,3,2,2,16.69708333,"[17.055000000007567,16.679999999993015,16.880000000004657,16.54000000000815,16.734999999993306,16.505000000004657,17.554999999993015,15.905000000006112,16.62999999999738,16.610000000000582,16.844999999993888,16.42500000000291]",12,
-1,-1,RDK,188,43810,0.0-1.0-187.0,FALSE,"a,l",a,200,TRUE,200,1,180,0.5,2,-1,1,600,400,white,gray,3,2,2,16.69583333,"[17.080000000001746,16.610000000000582,16.715000000003783,16.599999999998545,16.840000000003783,16.574999999989814,16.77500000000873,16.68499999999767,16.635000000002037,16.604999999995925,16.639999999999418,16.589999999996508]",12,
-1,-1,RDK,189,44027,0.0-1.0-188.0,FALSE,"a,l",a,200,TRUE,200,1,180,0.5,2,-1,1,600,400,white,gray,3,2,2,16.71625,"[17.19499999999971,16.525000000001455,16.779999999998836,16.44999999999709,16.860000000000582,16.69000000000233,16.669999999998254,16.584999999999127,16.625000000007276,16.739999999997963,16.614999999990687,16.860000000000582]",12,
-1,-1,RDK,190,44243,0.0-1.0-189.0,FALSE,"a,l",l,200,TRUE,200,1,0,0.5,2,-1,1,600,400,white,gray,3,2,2,16.69791667,"[18.044999999998254,15.525000000001455,16.650000000001455,16.784999999996217,16.80000000000291,16.56999999999971,16.67500000000291,16.77499999999418,16.56999999999971,16.7300000000032,16.650000000001455,16.59999999999127]",12,
-1,-1,RDK,191,44460,0.0-1.0-190.0,FALSE,"a,l",a,200,TRUE,200,1,180,0.5,2,-1,1,600,400,white,gray,3,2,2,16.70208333,"[16.989999999997963,17.580000000001746,15.874999999992724,16.474999999998545,16.67000000000553,16.669999999998254,16.650000000001455,17.489999999997963,15.905000000006112,17.6449999999968,15.759999999994761,16.71500000001106]",12,
-1,-1,RDK,192,44677,0.0-1.0-191.0,FALSE,"a,l",a,200,TRUE,200,1,180,0.5,2,-1,1,600,400,white,gray,3,2,2,16.70208333,"[17.05999999999767,16.72500000000582,16.57499999999709,16.68499999999767,16.74500000000262,16.57499999999709,16.72000000000844,17.199999999989814,16.22000000000844,16.599999999998545,17.485000000000582,15.834999999999127]",12,
-1,-1,RDK,193,44893,0.0-1.0-192.0,FALSE,"a,l",a,200,TRUE,200,1,180,0.5,2,-1,1,600,400,white,gray,3,2,2,16.71083333,"[17.02999999999156,16.610000000000582,16.82499999999709,16.62000000000262,16.79500000000553,16.479999999995925,16.7300000000032,16.735000000000582,16.69499999999971,16.544999999998254,16.67500000000291,16.790000000000873]",12,
-1,-1,RDK,194,45110,0.0-1.0-193.0,FALSE,"a,l",l,200,TRUE,200,1,0,0.5,2,-1,1,600,400,white,gray,3,2,2,16.665,"[16.424999999995634,16.61500000000524,16.80999999999767,16.57999999999447,16.69000000000233,16.69999999999709,16.775000000001455,16.62999999999738,16.910000000003492,17.674999999995634,15.705000000009022,16.464999999996508]",12,
-1,-1,RDK,195,45327,0.0-1.0-194.0,FALSE,"a,l",l,200,TRUE,200,1,0,0.5,2,-1,1,600,400,white,gray,3,2,2,16.71375,"[17.244999999995343,16.525000000001455,17.435000000004948,16.089999999996508,17.30999999999767,16.025000000001455,16.55000000000291,16.625,16.719999999993888,16.575000000004366,17.5199999999968,15.945000000006985]",12,
-1,-1,RDK,196,45544,0.0-1.0-195.0,FALSE,"a,l",a,200,TRUE,200,1,180,0.5,2,-1,1,600,400,white,gray,3,2,2,16.62916667,"[16.155000000006112,16.75999999999476,16.630000000004657,16.799999999995634,16.625,17.49500000000262,15.909999999996217,16.525000000001455,16.635000000002037,16.744999999995343,16.685000000004948,16.584999999999127]",12,
-1,-1,RDK,197,45760,0.0-1.0-196.0,FALSE,"a,l",l,200,TRUE,200,1,0,0.5,2,-1,1,600,400,white,gray,3,2,2,16.705,"[18.12000000000262,15.614999999997963,16.92500000000291,16.499999999992724,16.60000000000582,16.724999999998545,16.68000000000029,16.760000000002037,16.525000000001455,16.70999999999185,16.55000000000291,16.750000000007276]",12,
-1,-1,RDK,198,45977,0.0-1.0-197.0,FALSE,"a,l",a,200,TRUE,200,1,180,0.5,2,-1,1,600,400,white,gray,3,2,2,16.7125,"[17.1050000000032,16.60000000000582,16.679999999993015,16.794999999998254,16.61500000000524,16.69499999999971,16.469999999993888,16.590000000003783,16.81500000000233,16.62000000000262,17.339999999996508,16.224999999998545]",12,
-1,-1,RDK,199,46194,0.0-1.0-198.0,FALSE,"a,l",l,200,TRUE,200,1,0,0.5,2,-1,1,600,400,white,gray,3,2,2,16.68916667,"[16.1449999999968,16.660000000003492,16.624999999992724,16.654999999998836,16.890000000006694,17.37999999999738,15.865000000005239,17.63499999999476,15.680000000007567,16.70499999999447,16.535000000003492,17.494999999995343]",12,
-1,-1,RDK,200,46411,0.0-1.0-199.0,FALSE,"a,l",l,200,TRUE,200,1,0,0.5,2,-1,1,600,400,white,gray,3,2,2,16.7025,"[17.770000000004075,15.87000000000262,16.669999999998254,16.77999999999156,16.590000000003783,16.685000000004948,16.56999999999971,16.68000000000029,16.734999999993306,16.77500000000873,16.694999999992433,16.610000000000582]",12,