rt,key_press,trial_type,trial_index,time_elapsed,internal_node_id,correct,choices,correct_choice,trial_duration,response_ends_trial,number_of_dots,number_of_sets,coherent_direction,coherence,dot_radius,dot_life,move_distance,aperture_width,aperture_height,dot_color,background_color,RDK_type,aperture_type,reinsert_type,frame_rate,frame_rate_array,number_of_frames,
1939,13,text,0,1940,0.0-0.0,,,,,,,,,,,,,,,,,,,,,,,chrome
-1,-1,RDK,1,3147,0.0-1.0-0.0,FALSE,"a,l",a,200,TRUE,200,1,180,0.5,2,-1,1,600,400,white,gray,3,2,2,16.31875,"[16.725000000000364,11.085000000000036,16.985000000000127,18.44499999999971,15.275000000000091,16.5300000000002,16.565000000000055,17.074999999999363,16.070000000000164,17.355000000000473,16.284999999999854,17.429999999999836]",12,
-1,-1,RDK,2,3360,0.0-1.0-1.0,FALSE,"a,l",l,200,TRUE,200,1,0,0.5,2,-1,1,600,400,white,gray,3,2,2,16.69,"[17,16.659999999999854,16.76000000000022,16.710000000000036,17.47499999999991,16.4050000000002,16.754999999999654,16.31500000000051,17.014999999999418,17.125,15.510000000000218,16.550000000000182]",12,
-1,-1,RDK,3,3577,0.0-1.0-2.0,FALSE,"a,l",a,200,TRUE,200,1,180,0.5,2,-1,1,600,400,white,gray,3,2,2,16.62333333,"[16.38000000000102,16.244999999999436,16.53500000000031,16.9699999999998,16.50500000000011,16.769999999999527,16.520000000000437,17.645000000000437,16.204999999999018,16.32000000000062,16.544999999999163,16.840000000001055]",12,
-1,-1,RDK,4,3791,0.0-1.0-3.0,FALSE,"a,l",l,200,TRUE,200,1,0,0.5,2,-1,1,600,400,white,gray,3,2,2,16.71181818,"[16.849999999999454,16.8100000000004,16.5,16.81500000000051,16.960000000000036,16.32499999999891,16.68500000000131,16.649999999998727,16.75500000000011,17.110000000000582,16.36999999999989]",11,
-1,-1,RDK,5,3994,0.0-1.0-4.0,FALSE,"a,l",a,200,TRUE,200,1,180,0.5,2,-1,1,600,400,white,gray,3,2,2,16.52,"[14.955000000000837,16.669999999999163,16.640000000001237,16.654999999998836,16.75,16.76000000000022,16.61499999999978,18.13000000000102,15.159999999998945,16.715000000000146,16.774999999999636,16.415000000000873]",12,
-1,-1,RDK,6,4210,0.0-1.0-5.0,FALSE,"a,l",a,200,TRUE,200,1,180,0.5,2,-1,1,600,400,white,gray,3,2,2,16.6925,"[17.735000000000582,15.75500000000011,16.664999999999964,17.11499999999978,16.25500000000011,16.715000000000146,16.75,22.794999999999163,11.220000000001164,16.11499999999978,16.529999999999745,16.659999999999854]",12,
-1,-1,RDK,7,4427,0.0-1.0-6.0,FALSE,"a,l",l,200,TRUE,200,1,0,0.5,2,-1,1,600,400,white,gray,3,2,2,16.70416667,"[17.06500000000051,16.74999999999909,16.580000000000837,16.600000000000364,17.519999999999527,16.100000000000364,16.50999999999931,16.63000000000011,16.75500000000011,16.645000000000437,16.61499999999978,16.67999999999938]",12,
-1,-1,RDK,8,4644,0.0-1.0-7.0,FALSE,"a,l",a,200,TRUE,200,1,180,0.5,2,-1,1,600,400,white,gray,3,2,2,16.69583333,"[17.100000000000364,16.49999999999909,16.74000000000069,16.625,16.644999999999527,17.600000000000364,15.839999999999236,16.850000000001273,16.50999999999931,16.63000000000011,16.68000000000029,16.63000000000011]",12,
-1,-1,RDK,9,4859,0.0-1.0-8.0,FALSE,"a,l",l,200,TRUE,200,1,0,0.5,2,-1,1,600,400,white,gray,3,2,2,16.68363636,"[17.574999999999818,15.835000000000946,17.44000000000051,15.969999999999345,16.774999999999636,16.590000000000146,16.63000000000011,16.8100000000004,16.649999999999636,16.855000000000473,16.390000000000327]",11,
-1,-1,RDK,10,5061,0.0-1.0-9.0,FALSE,"a,l",a,200,TRUE,200,1,180,0.5,2,-1,1,600,400,white,gray,3,2,2,16.49375,"[14.655000000000655,16.68499999999949,16.74000000000069,16.9350000000004,17.099999999999454,16.105000000000473,16.454999999999018,16.6850000000004,16.640000000000327,16.654999999999745,16.604999999999563,16.665000000000873]",12,
-1,-1,RDK,11,5278,0.0-1.0-10.0,FALSE,"a,l",l,200,TRUE,200,1,0,0.5,2,-1,1,600,400,white,gray,3,2,2,16.70416667,"[17.720000000000255,16.020000000000437,16.714999999999236,16.63000000000011,16.605000000000473,16.80499999999938,16.595000000000255,16.74499999999989,16.75,16.7450000000008,16.604999999999563,16.514999999999418]",12,
-1,-1,RDK,12,5494,0.0-1.0-11.0,FALSE,"a,l",l,200,TRUE,200,1,0,0.5,2,-1,1,600,400,white,gray,3,2,2,16.70416667,"[17.13499999999931,16.595000000001164,16.639999999999418,17.36999999999989,15.954999999999927,16.659999999999854,16.68000000000029,16.589999999999236,16.74000000000069,16.664999999999964,16.670000000000073,16.75]",12,
-1,-1,RDK,13,5708,0.0-1.0-12.0,FALSE,"a,l",l,200,TRUE,200,1,0,0.5,2,-1,1,600,400,white,gray,3,2,2,16.70727273,"[17.095000000000255,16.5600000000004,16.699999999999818,16.664999999999964,17.44500000000062,16.349999999999454,16.36499999999978,16.55500000000029,16.920000000000073,16.449999999999818,16.675000000000182]",11,
-1,-1,RDK,14,5911,0.0-1.0-13.0,FALSE,"a,l",a,200,TRUE,200,1,180,0.5,2,-1,1,600,400,white,gray,3,2,2,16.5525,"[15.335000000000036,16.580000000000837,16.734999999999673,16.609999999999673,16.63500000000022,16.68499999999949,16.75500000000011,16.595000000000255,16.644999999999527,16.710000000000036,16.94500000000062,16.399999999999636]",12,
-1,-1,RDK,15,6127,0.0-1.0-14.0,FALSE,"a,l",l,200,TRUE,200,1,0,0.5,2,-1,1,600,400,white,gray,3,2,2,16.715,"[17.074999999999818,16.63000000000011,17.175000000000182,16.104999999999563,16.74499999999989,16.595000000000255,16.715000000000146,16.68499999999949,16.63000000000102,16.769999999999527,17.324999999999818,16.13000000000011]",12,
-1,-1,RDK,16,6344,0.0-1.0-15.0,FALSE,"a,l",l,200,TRUE,200,1,0,0.5,2,-1,1,600,400,white,gray,3,2,2,16.69583333,"[17.039999999999964,16.600000000000364,16.76000000000022,16.63499999999931,16.704999999999927,17.725000000000364,15.710000000000036,16.76000000000022,16.68499999999949,16.485000000000582,16.69499999999971,16.550000000000182]",12,
-1,-1,RDK,17,6560,0.0-1.0-16.0,FALSE,"a,l",l,200,TRUE,200,1,0,0.5,2,-1,1,600,400,white,gray,3,2,2,16.7,"[16.88499999999931,16.795000000000073,16.765000000000327,16.599999999999454,16.600000000000364,16.700000000000728,16.67999999999938,17.360000000000582,15.864999999999782,16.974999999999454,16.600000000000364,16.574999999999818]",12,
-1,-1,RDK,18,6778,0.0-1.0-17.0,FALSE,"a,l",a,200,TRUE,200,1,180,0.5,2,-1,1,600,400,white,gray,3,2,2,16.71541667,"[17.154999999999745,16.5,16.700000000000728,16.599999999999454,16.649999999999636,16.824999999999818,16.585000000000946,16.675000000000182,16.80499999999938,16.63000000000011,16.579999999999018,16.88000000000102]",12,
-1,-1,RDK,19,6994,0.0-1.0-18.0,FALSE,"a,l",a,200,TRUE,200,1,180,0.5,2,-1,1,600,400,white,gray,3,2,2,16.6975,"[17.075000000000728,16.534999999999854,16.649999999999636,16.780000000000655,16.644999999999527,17.389999999999418,16.050000000000182,16.625,16.62500000000091,16.6899999999996,16.61499999999978,16.69000000000051]",12,
-1,-1,RDK,20,7211,0.0-1.0-19.0,FALSE,"a,l",l,200,TRUE,200,1,0,0.5,2,-1,1,600,400,white,gray,3,2,2,16.69791667,"[16.859999999999673,17.345000000000255,16.19500000000062,16.675000000000182,16.589999999999236,16.80500000000029,16.589999999999236,16.670000000000982,16.5049999999992,17.13000000000102,16.5049999999992,16.50500000000102]",12,
-1,-1,RDK,21,7428,0.0-1.0-20.0,FALSE,"a,l",l,200,TRUE,200,1,0,0.5,2,-1,1,600,400,white,gray,3,2,2,16.70333333,"[17.100000000000364,16.67999999999938,16.640000000001237,16.49999999999909,16.915000000000873,16.55999999999949,16.649999999999636,16.68000000000029,16.75000000000091,16.6349999999984,16.659999999999854,16.67000000000189]",12,
-1,-1,RDK,22,7645,0.0-1.0-21.0,FALSE,"a,l",l,200,TRUE,200,1,0,0.5,2,-1,1,600,400,white,gray,3,2,2,16.70875,"[17.06999999999971,16.515000000000327,16.704999999999927,16.735000000000582,16.6299999999992,16.735000000000582,16.960000000000036,16.36999999999898,16.63000000000102,16.604999999999563,16.80500000000029,16.74499999999898]",12,
-1,-1,RDK,23,7861,0.0-1.0-22.0,FALSE,"a,l",a,200,TRUE,200,1,180,0.5,2,-1,1,600,400,white,gray,3,2,2,16.6975,"[16.964999999998327,16.67500000000109,16.719999999999345,16.600000000000364,16.850000000000364,16.6200000000008,16.735000000000582,16.49499999999898,16.4950000000008,16.914999999999054,16.654999999998836,16.645000000000437]",12,
-1,-1,RDK,24,8078,0.0-1.0-23.0,FALSE,"a,l",l,200,TRUE,200,1,0,0.5,2,-1,1,600,400,white,gray,3,2,2,16.70458333,"[17.075000000000728,16.664999999999054,16.890000000001237,16.469999999999345,16.850000000000364,16.36999999999898,16.67500000000109,16.8700000000008,16.57499999999891,16.56999999999971,16.68000000000029,16.764999999999418]",12,
-1,-1,RDK,25,8295,0.0-1.0-24.0,FALSE,"a,l",a,200,TRUE,200,1,180,0.5,2,-1,1,600,400,white,gray,3,2,2,16.70083333,"[17.05500000000029,16.625,16.44000000000051,16.789999999999054,16.68500000000131,17.349999999998545,16.085000000000946,16.654999999998836,16.705000000001746,16.73999999999978,16.68499999999949,16.594999999999345]",12,
-1,-1,RDK,26,8512,0.0-1.0-25.0,FALSE,"a,l",l,200,TRUE,200,1,0,0.5,2,-1,1,600,400,white,gray,3,2,2,16.69208333,"[17.69999999999891,16.159999999999854,16.414999999999054,16.640000000001237,16.639999999999418,16.709999999999127,16.775000000001455,16.645000000000437,16.524999999999636,16.81499999999869,16.68500000000131,16.594999999999345]",12,
-1,-1,RDK,27,8728,0.0-1.0-26.0,FALSE,"a,l",a,200,TRUE,200,1,180,0.5,2,-1,1,600,400,white,gray,3,2,2,16.70416667,"[17.100000000002183,16.474999999998545,16.715000000000146,16.535000000001673,16.914999999999054,16.784999999999854,16.6299999999992,16.595000000001164,16.5,16.82499999999891,17.30000000000109,16.07499999999891]",12,
-1,-1,RDK,28,8945,0.0-1.0-27.0,FALSE,"a,l",a,200,TRUE,200,1,180,0.5,2,-1,1,600,400,white,gray,3,2,2,16.70708333,"[16.98999999999978,16.485000000000582,17.090000000000146,16.289999999999054,16.920000000000073,16.674999999999272,16.695000000001528,17.860000000000582,15.699999999998909,16.405000000000655,16.674999999999272,16.69999999999891]",12,
-1,-1,RDK,29,9162,0.0-1.0-28.0,FALSE,"a,l",a,200,TRUE,200,1,180,0.5,2,-1,1,600,400,white,gray,3,2,2,16.70416667,"[17.094999999999345,16.775000000001455,16.55000000000109,16.764999999999418,16.735000000000582,16.609999999998763,16.665000000000873,16.55999999999949,16.589999999998327,17.525000000001455,16.159999999999854,16.420000000000073]",12,
-1,-1,RDK,30,9377,0.0-1.0-29.0,FALSE,"a,l",a,200,TRUE,200,1,180,0.5,2,-1,1,600,400,white,gray,3,2,2,16.69375,"[17.670000000000073,15.8799999999992,16.81500000000051,16.710000000000946,16.75,16.644999999998618,16.545000000000073,16.56999999999971,16.735000000000582,16.774999999999636,16.715000000001965,16.5149999999976]",12,
-1,-1,RDK,31,9596,0.0-1.0-30.0,FALSE,"a,l",l,200,TRUE,200,1,0,0.5,2,-1,1,600,400,white,gray,3,2,2,16.68166667,"[16.909999999999854,16.4950000000008,16.724999999998545,16.69499999999971,16.63000000000102,16.63000000000102,16.834999999999127,16.599999999998545,16.710000000002765,16.80999999999949,16.534999999998035,16.605000000001382]",12,
-1,-1,RDK,32,9812,0.0-1.0-31.0,FALSE,"a,l",l,200,TRUE,200,1,0,0.5,2,-1,1,600,400,white,gray,3,2,2,16.70458333,"[17.580000000001746,16.084999999997308,16.75500000000102,16.475000000000364,16.710000000000946,16.604999999999563,16.715000000000146,16.61999999999898,17.525000000001455,16.354999999999563,16.294999999998254,16.735000000000582]",12,
-1,-1,RDK,33,10028,0.0-1.0-32.0,FALSE,"a,l",a,200,TRUE,200,1,180,0.5,2,-1,1,600,400,white,gray,3,2,2,16.70916667,"[17.079999999999927,16.450000000000728,16.75,16.655000000000655,17.284999999998035,16.270000000000437,16.534999999999854,17.820000000001528,15.479999999999563,16.720000000001164,16.8799999999992,16.585000000000946]",12,
-1,-1,RDK,34,10245,0.0-1.0-33.0,FALSE,"a,l",l,200,TRUE,200,1,0,0.5,2,-1,1,600,400,white,gray,3,2,2,16.65416667,"[16.50500000000102,16.56499999999869,16.725000000000364,16.659999999999854,16.875,16.92500000000109,16.214999999998327,17.395000000000437,15.909999999999854,16.719999999999345,16.700000000000728,16.655000000000655]",12,
-1,-1,RDK,35,10462,0.0-1.0-34.0,FALSE,"a,l",l,200,TRUE,200,1,0,0.5,2,-1,1,600,400,white,gray,3,2,2,16.70291667,"[17.049999999999272,16.645000000000437,17.05500000000029,16.31499999999869,16.720000000001164,16.76000000000022,16.600000000000364,16.6399999999976,16.68500000000131,16.80500000000029,16.61999999999898,16.540000000000873]",12,
-1,-1,RDK,36,10678,0.0-1.0-35.0,FALSE,"a,l",l,200,TRUE,200,1,0,0.5,2,-1,1,600,400,white,gray,3,2,2,16.7,"[17.13500000000022,16.535000000001673,16.664999999999054,16.639999999999418,17.095000000001164,16.344999999999345,16.69000000000051,16.73999999999978,16.520000000000437,16.7599999999984,16.640000000001237,16.6349999999984]",12,
-1,-1,RDK,37,10896,0.0-1.0-36.0,FALSE,"a,l",a,200,TRUE,200,1,180,0.5,2,-1,1,600,400,white,gray,3,2,2,16.66166667,"[16.900000000001455,16.299999999999272,16.390000000001237,16.80999999999949,16.55999999999949,16.73999999999978,16.659999999999854,17.6100000000024,15.889999999997599,16.590000000001965,16.6299999999992,16.860000000000582]",12,
-1,-1,RDK,38,11113,0.0-1.0-37.0,FALSE,"a,l",a,200,TRUE,200,1,180,0.5,2,-1,1,600,400,white,gray,3,2,2,16.69958333,"[17.735000000000582,15.825000000000728,17.969999999999345,15.545000000000073,16.56500000000051,16.875,16.44000000000051,16.69999999999891,17.55500000000029,16.075000000000728,16.554999999998472,16.55500000000029]",12,
-1,-1,RDK,39,11327,0.0-1.0-38.0,FALSE,"a,l",a,200,TRUE,200,1,180,0.5,2,-1,1,600,400,white,gray,3,2,2,16.69681818,"[17.145000000002256,16.44499999999789,16.80500000000029,16.514999999999418,16.8700000000008,16.63000000000102,16.625,16.56000000000131,16.69999999999709,16.659999999999854,16.710000000002765]",11,
-1,-1,RDK,40,11529,0.0-1.0-39.0,FALSE,"a,l",a,200,TRUE,200,1,180,0.5,2,-1,1,600,400,white,gray,3,2,2,16.57875,"[16.155000000000655,16.204999999999927,16.540000000000873,16.57499999999891,16.68999999999869,16.88000000000102,16.4950000000008,16.579999999999927,17.645000000000437,16.06500000000051,16.579999999999927,16.534999999998035]",12,
-1,-1,RDK,41,11744,0.0-1.0-40.0,FALSE,"a,l",a,200,TRUE,200,1,180,0.5,2,-1,1,600,400,white,gray,3,2,2,16.71954545,"[17.020000000000437,17.44499999999789,15.9950000000008,16.715000000001965,16.804999999998472,16.454999999999927,16.61499999999978,16.770000000000437,16.69499999999971,17.604999999999563,15.795000000001892]",11,
-1,-1,RDK,42,11946,0.0-1.0-41.0,FALSE,"a,l",l,200,TRUE,200,1,0,0.5,2,-1,1,600,400,white,gray,3,2,2,16.53833333,"[15.069999999999709,16.604999999999563,16.61999999999898,16.67500000000109,16.644999999998618,17.595000000001164,15.709999999999127,16.770000000002256,16.659999999999854,16.56499999999869,16.695000000001528,16.849999999998545]",12,
-1,-1,RDK,43,12163,0.0-1.0-42.0,FALSE,"a,l",l,200,TRUE,200,1,0,0.5,2,-1,1,600,400,white,gray,3,2,2,16.7,"[17.1150000000016,16.99499999999898,16.350000000000364,16.56500000000051,16.625,16.93000000000029,16.414999999999054,16.854999999999563,16.590000000000146,17.19499999999971,16.159999999999854,16.604999999999563]",12,
-1,-1,RDK,44,12379,0.0-1.0-43.0,FALSE,"a,l",l,200,TRUE,200,1,0,0.5,2,-1,1,600,400,white,gray,3,2,2,16.70666667,"[17.034999999999854,16.6200000000008,16.69000000000051,16.68499999999949,16.81499999999869,16.600000000000364,16.775000000001455,16.514999999999418,16.700000000000728,16.7549999999992,16.6299999999992,16.659999999999854]",12,
-1,-1,RDK,45,12596,0.0-1.0-44.0,FALSE,"a,l",l,200,TRUE,200,1,0,0.5,2,-1,1,600,400,white,gray,3,2,2,16.61458333,"[16.034999999999854,16.49499999999898,16.610000000000582,16.69499999999971,16.715000000000146,17.375,16.174999999999272,17.4950000000008,15.774999999999636,16.55000000000109,16.654999999998836,16.80000000000109]",12,
-1,-1,RDK,46,12813,0.0-1.0-45.0,FALSE,"a,l",a,200,TRUE,200,1,180,0.5,2,-1,1,600,400,white,gray,3,2,2,16.71125,"[17.795000000000073,16.165000000000873,16.43999999999869,16.595000000001164,16.804999999998472,16.700000000000728,16.625,16.56500000000051,17.710000000000946,15.824999999998909,16.715000000000146,16.594999999999345]",12,
-1,-1,RDK,47,13030,0.0-1.0-46.0,FALSE,"a,l",l,200,TRUE,200,1,0,0.5,2,-1,1,600,400,white,gray,3,2,2,16.69833333,"[17.0149999999976,16.55000000000109,16.895000000000437,16.484999999998763,16.850000000000364,16.654999999998836,16.585000000000946,16.764999999999418,16.650000000001455,16.724999999998545,16.590000000001965,16.61499999999978]",12,
-1,-1,RDK,48,13245,0.0-1.0-47.0,FALSE,"a,l",l,200,TRUE,200,1,0,0.5,2,-1,1,600,400,white,gray,3,2,2,16.60416667,"[15.8700000000008,16.570000000001528,16.729999999997744,17.265000000001237,15.979999999999563,17.31500000000051,16.2549999999992,17.480000000001382,15.789999999999054,16.75,16.63000000000102,16.61499999999978]",12,
-1,-1,RDK,49,13463,0.0-1.0-48.0,FALSE,"a,l",l,200,TRUE,200,1,0,0.5,2,-1,1,600,400,white,gray,3,2,2,16.68875,"[17.540000000000873,16.034999999998035,16.704999999999927,16.530000000002474,16.674999999999272,16.799999999999272,16.704999999999927,16.469999999999345,17.595000000001164,15.964999999998327,16.525000000001455,16.719999999999345]",12,
-1,-1,RDK,50,13680,0.0-1.0-49.0,FALSE,"a,l",l,200,TRUE,200,1,0,0.5,2,-1,1,600,400,white,gray,3,2,2,16.695,"[16.895000000000437,16.639999999999418,16.63000000000102,16.57499999999891,16.92500000000109,16.599999999998545,16.68500000000131,16.609999999998763,16.715000000000146,16.645000000000437,16.735000000000582,16.68499999999949]",12,
-1,-1,RDK,51,13897,0.0-1.0-50.0,FALSE,"a,l",l,200,TRUE,200,1,0,0.5,2,-1,1,600,400,white,gray,3,2,2,16.61375,"[16.13000000000102,16.55000000000109,17.30500000000029,16.045000000000073,16.610000000000582,16.724999999998545,16.640000000001237,16.664999999999054,16.715000000000146,16.594999999999345,16.829999999999927,16.55500000000029]",12,
-1,-1,RDK,52,14114,0.0-1.0-51.0,FALSE,"a,l",l,200,TRUE,200,1,0,0.5,2,-1,1,600,400,white,gray,3,2,2,16.70291667,"[17.05999999999949,16.88500000000022,16.575000000000728,16.55999999999949,16.645000000000437,16.665000000000873,16.669999999998254,16.790000000000873,16.514999999999418,17.025000000001455,16.489999999997963,16.55500000000029]",12,
-1,-1,RDK,53,14329,0.0-1.0-52.0,FALSE,"a,l",a,200,TRUE,200,1,180,0.5,2,-1,1,600,400,white,gray,3,2,2,16.7,"[17.06500000000051,16.529999999998836,16.76000000000022,16.590000000000146,17.00500000000102,16.584999999999127,16.514999999999418,16.649999999999636,16.730000000001382,16.7450000000008,16.62499999999818,16.600000000000364]",12,
-1,-1,RDK,54,14546,0.0-1.0-53.0,FALSE,"a,l",a,200,TRUE,200,1,180,0.5,2,-1,1,600,400,white,gray,3,2,2,16.64541667,"[16.579999999999927,16.31999999999971,16.67500000000109,16.704999999999927,16.644999999998618,17.18500000000131,16.295000000000073,16.734999999998763,16.62500000000182,16.484999999998763,16.69499999999971,16.80000000000109]",12,
-1,-1,RDK,55,14763,0.0-1.0-54.0,FALSE,"a,l",a,200,TRUE,200,1,180,0.5,2,-1,1,600,400,white,gray,3,2,2,16.70166667,"[17.0149999999976,16.8650000000016,18.07499999999891,15.25,16.56500000000051,16.604999999999563,16.75,16.640000000001237,17.409999999999854,16.07499999999891,16.56500000000051,16.604999999999563]",12,
-1,-1,RDK,56,14980,0.0-1.0-55.0,FALSE,"a,l",l,200,TRUE,200,1,0,0.5,2,-1,1,600,400,white,gray,3,2,2,16.69666667,"[16.975000000000364,16.68999999999869,16.68000000000211,17.590000000000146,15.964999999998327,16.68499999999949,16.4900000000016,16.73999999999978,16.589999999998327,16.75,17.24500000000262,15.959999999999127]",12,
-1,-1,RDK,57,15197,0.0-1.0-56.0,FALSE,"a,l",l,200,TRUE,200,1,0,0.5,2,-1,1,600,400,white,gray,3,2,2,16.64958333,"[16.484999999998763,16.49499999999898,16.780000000000655,16.4900000000016,16.739999999997963,17.31000000000131,15.994999999998981,18.170000000000073,15.800000000001091,16.174999999999272,16.610000000000582,16.7450000000008]",12,
-1,-1,RDK,58,15414,0.0-1.0-57.0,FALSE,"a,l",a,200,TRUE,200,1,180,0.5,2,-1,1,600,400,white,gray,3,2,2,16.71083333,"[17.63500000000022,16.170000000000073,17.56499999999869,15.780000000002474,16.659999999999854,16.649999999999636,16.61499999999978,16.644999999998618,17.350000000002183,16.349999999998545,16.329999999999927,16.780000000000655]",12,
-1,-1,RDK,59,15630,0.0-1.0-58.0,FALSE,"a,l",l,200,TRUE,200,1,0,0.5,2,-1,1,600,400,white,gray,3,2,2,16.71375,"[17.075000000002547,16.614999999997963,16.729999999999563,16.63500000000022,16.770000000002256,16.6399999999976,16.780000000000655,16.5049999999992,16.719999999999345,16.68000000000029,16.640000000003056,16.774999999999636]",12,
-1,-1,RDK,60,15847,0.0-1.0-59.0,FALSE,"a,l",a,200,TRUE,200,1,180,0.5,2,-1,1,600,400,white,gray,3,2,2,16.69958333,"[17.214999999996508,16.42500000000109,16.68499999999949,16.709999999999127,16.630000000002838,16.68999999999869,16.5099999999984,16.74499999999898,16.80000000000291,16.595000000001164,16.7699999999968,16.61999999999898]",12,
-1,-1,RDK,61,16064,0.0-1.0-60.0,FALSE,"a,l",l,200,TRUE,200,1,0,0.5,2,-1,1,600,400,white,gray,3,2,2,16.70083333,"[17.469999999997526,16.279999999998836,16.650000000001455,16.57999999999811,16.700000000000728,16.664999999997235,16.665000000000873,16.640000000003056,17.374999999996362,15.9900000000016,16.69000000000233,16.70499999999811]",12,
-1,-1,RDK,62,16280,0.0-1.0-61.0,FALSE,"a,l",l,200,TRUE,200,1,0,0.5,2,-1,1,600,400,white,gray,3,2,2,16.68833333,"[16.909999999999854,16.56000000000131,16.81500000000233,16.57499999999709,16.830000000001746,16.729999999995925,16.535000000003492,16.86999999999898,16.520000000000437,16.790000000000873,16.839999999996508,16.284999999999854]",12,
-1,-1,RDK,63,16497,0.0-1.0-62.0,FALSE,"a,l",a,200,TRUE,200,1,180,0.5,2,-1,1,600,400,white,gray,3,2,2,16.66916667,"[16.785000000003492,16.50499999999738,16.710000000002765,16.639999999999418,16.6349999999984,16.720000000001164,16.68999999999869,16.665000000000873,16.69499999999971,16.720000000001164,16.56499999999869,16.700000000000728]",12,
-1,-1,RDK,64,16715,0.0-1.0-63.0,FALSE,"a,l",a,200,TRUE,200,1,180,0.5,2,-1,1,600,400,white,gray,3,2,2,16.70625,"[16.94999999999709,16.735000000000582,16.88000000000102,16.534999999999854,16.775000000001455,16.529999999998836,16.584999999999127,16.68000000000029,16.68499999999767,16.825000000000728,17.56000000000131,15.734999999996944]",12,
-1,-1,RDK,65,16931,0.0-1.0-64.0,FALSE,"a,l",a,200,TRUE,200,1,180,0.5,2,-1,1,600,400,white,gray,3,2,2,16.6825,"[17.06499999999869,16.575000000000728,16.68000000000029,16.590000000000146,16.909999999999854,16.6349999999984,16.56999999999971,16.725000000002183,16.764999999999418,16.639999999999418,16.63000000000102,16.404999999998836]",12,
-1,-1,RDK,66,17148,0.0-1.0-65.0,FALSE,"a,l",a,200,TRUE,200,1,180,0.5,2,-1,1,600,400,white,gray,3,2,2,16.67583333,"[16.845000000001164,16.36999999999898,16.734999999996944,16.695000000003347,16.590000000000146,17.470000000001164,15.784999999996217,16.895000000004075,16.784999999996217,16.515000000003056,16.70499999999811,16.719999999997526]",12,
-1,-1,RDK,67,17365,0.0-1.0-66.0,FALSE,"a,l",l,200,TRUE,200,1,0,0.5,2,-1,1,600,400,white,gray,3,2,2,16.705,"[16.895000000000437,16.7400000000016,16.764999999999418,17.635000000002037,15.57499999999709,16.650000000001455,16.604999999999563,16.735000000000582,16.844999999997526,16.56000000000131,17.80500000000029,15.649999999997817]",12,
-1,-1,RDK,68,17580,0.0-1.0-67.0,FALSE,"a,l",a,200,TRUE,200,1,180,0.5,2,-1,1,600,400,white,gray,3,2,2,16.69333333,"[17.039999999997235,16.75,16.500000000003638,16.714999999996508,16.825000000000728,16.68999999999869,16.775000000001455,16.50500000000102,16.654999999998836,16.80000000000291,16.57999999999447,16.485000000000582]",12,
-1,-1,RDK,69,17798,0.0-1.0-68.0,FALSE,"a,l",a,200,TRUE,200,1,180,0.5,2,-1,1,600,400,white,gray,3,2,2,16.68791667,"[16.99499999999898,16.37000000000262,16.669999999998254,16.709999999999127,16.93000000000029,16.415000000000873,16.57499999999709,17.025000000001455,16.54500000000189,16.590000000000146,16.825000000000728,16.604999999999563]",12,
-1,-1,RDK,70,18015,0.0-1.0-69.0,FALSE,"a,l",a,200,TRUE,200,1,180,0.5,2,-1,1,600,400,white,gray,3,2,2,16.7225,"[17.075000000000728,16.54500000000189,16.93499999999767,16.700000000000728,16.600000000002183,16.51499999999578,16.68000000000029,16.830000000001746,16.604999999999563,16.715000000003783,16.899999999997817,16.56999999999971]",12,
-1,-1,RDK,71,18229,0.0-1.0-70.0,FALSE,"a,l",l,200,TRUE,200,1,0,0.5,2,-1,1,600,400,white,gray,3,2,2,16.68090909,"[16.789999999997235,16.6150000000016,16.849999999998545,17.100000000002183,16.11999999999898,16.94499999999971,16.325000000000728,16.784999999999854,16.68000000000029,16.859999999996944,16.42000000000189]",11,
-1,-1,RDK,72,18431,0.0-1.0-71.0,FALSE,"a,l",l,200,TRUE,200,1,0,0.5,2,-1,1,600,400,white,gray,3,2,2,16.57916667,"[15.719999999997526,17.13000000000102,16.210000000002765,16.55999999999767,16.529999999998836,17.385000000002037,15.994999999998981,16.50499999999738,16.955000000005384,16.6449999999968,16.6150000000016,16.700000000000728]",12,
-1,-1,RDK,73,18646,0.0-1.0-72.0,FALSE,"a,l",l,200,TRUE,200,1,0,0.5,2,-1,1,600,400,white,gray,3,2,2,16.70181818,"[17.029999999995198,16.665000000000873,16.470000000001164,17.080000000001746,16.639999999999418,16.484999999996944,16.645000000000437,16.775000000001455,16.715000000000146,16.534999999999854,16.68000000000029]",11,
-1,-1,RDK,74,18848,0.0-1.0-73.0,FALSE,"a,l",l,200,TRUE,200,1,0,0.5,2,-1,1,600,400,white,gray,3,2,2,16.56166667,"[15.354999999999563,16.539999999997235,16.835000000002765,16.549999999999272,16.6150000000016,17.56999999999607,15.87000000000262,17.575000000000728,15.81499999999869,16.514999999999418,16.81999999999971,16.68000000000029]",12,
-1,-1,RDK,75,19064,0.0-1.0-74.0,FALSE,"a,l",a,200,TRUE,200,1,180,0.5,2,-1,1,600,400,white,gray,3,2,2,16.70291667,"[17.104999999999563,16.645000000000437,16.724999999998545,16.540000000000873,16.61999999999898,16.775000000001455,16.604999999999563,16.645000000000437,16.474999999998545,17.015000000003056,16.709999999999127,16.575000000000728]",12,
-1,-1,RDK,76,19281,0.0-1.0-75.0,FALSE,"a,l",a,200,TRUE,200,1,180,0.5,2,-1,1,600,400,white,gray,3,2,2,16.69375,"[17.11999999999898,16.70499999999811,16.475000000002183,16.514999999999418,17.205000000001746,16.369999999995343,16.705000000001746,16.57999999999811,16.685000000004948,16.68999999999869,16.654999999998836,16.62000000000262]",12,
-1,-1,RDK,77,19498,0.0-1.0-76.0,FALSE,"a,l",a,200,TRUE,200,1,180,0.5,2,-1,1,600,400,white,gray,3,2,2,16.69791667,"[17.085000000002765,16.669999999998254,16.585000000002765,16.664999999997235,16.69000000000233,16.774999999997817,16.80500000000029,17.709999999999127,15.459999999999127,16.700000000000728,16.575000000000728,16.654999999998836]",12,
-1,-1,RDK,78,19715,0.0-1.0-77.0,FALSE,"a,l",a,200,TRUE,200,1,180,0.5,2,-1,1,600,400,white,gray,3,2,2,16.695,"[17,16.974999999998545,16.625,16.18500000000131,17.349999999998545,16.159999999999854,16.70499999999811,16.760000000002037,16.49499999999898,16.840000000003783,16.739999999997963,16.50499999999738]",12,
-1,-1,RDK,79,19931,0.0-1.0-78.0,FALSE,"a,l",a,200,TRUE,200,1,180,0.5,2,-1,1,600,400,white,gray,3,2,2,16.68625,"[17.04500000000189,16.81499999999869,16.540000000000873,16.470000000001164,17.12999999999738,16.4900000000016,16.67000000000189,16.575000000000728,16.63999999999578,16.86000000000422,16.624999999996362,16.375]",12,
-1,-1,RDK,80,20148,0.0-1.0-79.0,FALSE,"a,l",l,200,TRUE,200,1,0,0.5,2,-1,1,600,400,white,gray,3,2,2,16.69875,"[17.024999999997817,16.654999999998836,16.299999999999272,17,16.645000000000437,16.655000000002474,16.69999999999709,17.600000000002183,15.8849999999984,16.735000000000582,16.474999999998545,16.710000000002765]",12,
-1,-1,RDK,81,20366,0.0-1.0-80.0,FALSE,"a,l",a,200,TRUE,200,1,180,0.5,2,-1,1,600,400,white,gray,3,2,2,16.71791667,"[17.05999999999767,16.710000000002765,17.609999999996944,15.534999999999854,16.840000000003783,16.57999999999811,16.75,16.649999999997817,16.56500000000233,16.885000000002037,17.875,15.554999999996653]",12,
-1,-1,RDK,82,20582,0.0-1.0-81.0,FALSE,"a,l",l,200,TRUE,200,1,0,0.5,2,-1,1,600,400,white,gray,3,2,2,16.68958333,"[16.93500000000131,16.81999999999971,16.56999999999971,17.5,16.20499999999811,16.37000000000262,16.594999999997526,16.725000000002183,16.780000000002474,16.534999999996217,17.06999999999971,16.17000000000189]",12,
-1,-1,RDK,83,20799,0.0-1.0-82.0,FALSE,"a,l",l,200,TRUE,200,1,0,0.5,2,-1,1,600,400,white,gray,3,2,2,16.65333333,"[16.5,16.6150000000016,16.710000000002765,16.6349999999984,16.665000000000873,16.729999999999563,16.62999999999738,16.979999999999563,16.535000000003492,16.56999999999607,16.67000000000189,16.600000000002183]",12,
-1,-1,RDK,84,21015,0.0-1.0-83.0,FALSE,"a,l",a,200,TRUE,200,1,180,0.5,2,-1,1,600,400,white,gray,3,2,2,16.71041667,"[17.659999999999854,15.9900000000016,16.784999999999854,16.709999999999127,16.50499999999738,16.780000000002474,16.625,16.81000000000131,17.06000000000131,16.739999999997963,16.100000000002183,16.75999999999476]",12,
-1,-1,RDK,85,21230,0.0-1.0-84.0,FALSE,"a,l",a,200,TRUE,200,1,180,0.5,2,-1,1,600,400,white,gray,3,2,2,16.70272727,"[17.035000000003492,16.80999999999767,16.590000000000146,16.57999999999811,17.2300000000032,16.20999999999549,16.620000000006257,16.614999999997963,16.924999999999272,16.645000000000437,16.469999999997526]",11,
-1,-1,RDK,86,21433,0.0-1.0-85.0,FALSE,"a,l",a,200,TRUE,200,1,180,0.5,2,-1,1,600,400,white,gray,3,2,2,16.56458333,"[15.840000000000146,16.224999999998545,16.68000000000029,16.529999999998836,16.760000000002037,16.825000000000728,17.034999999999854,16.289999999997235,17.43000000000393,15.985000000000582,16.590000000000146,16.584999999999127]",12,
-1,-1,RDK,87,21647,0.0-1.0-86.0,FALSE,"a,l",l,200,TRUE,200,1,0,0.5,2,-1,1,600,400,white,gray,3,2,2,16.71,"[17.150000000001455,16.499999999996362,16.7400000000016,17.36999999999898,15.889999999999418,16.700000000000728,16.705000000001746,16.625,17.00500000000102,17.040000000000873,16.084999999999127]",11,
-1,-1,RDK,88,21849,0.0-1.0-87.0,FALSE,"a,l",l,200,TRUE,200,1,0,0.5,2,-1,1,600,400,white,gray,3,2,2,16.51041667,"[14.700000000000728,16.6150000000016,16.900000000001455,16.5099999999984,16.590000000000146,16.705000000001746,16.929999999996653,16.67500000000291,16.50499999999738,16.775000000001455,16.5,16.720000000001164]",12,
-1,-1,RDK,89,22066,0.0-1.0-88.0,FALSE,"a,l",l,200,TRUE,200,1,0,0.5,2,-1,1,600,400,white,gray,3,2,2,16.70916667,"[17,16.840000000000146,16.56500000000233,16.590000000000146,16.794999999998254,16.674999999999272,16.654999999998836,16.570000000003347,17.669999999998254,16.274999999997817,16.135000000002037,16.7400000000016]",12,
-1,-1,RDK,90,22282,0.0-1.0-89.0,FALSE,"a,l",l,200,TRUE,200,1,0,0.5,2,-1,1,600,400,white,gray,3,2,2,16.70125,"[17.19000000000233,16.614999999997963,16.515000000003056,16.614999999997963,16.93000000000029,16.6349999999984,16.580000000001746,16.610000000000582,17.294999999998254,16.025000000001455,16.650000000001455,16.75500000000102]",12,
-1,-1,RDK,91,22499,0.0-1.0-90.0,FALSE,"a,l",l,200,TRUE,200,1,0,0.5,2,-1,1,600,400,white,gray,3,2,2,16.62083333,"[16.00500000000102,16.674999999999272,16.56499999999869,16.63000000000102,16.86999999999898,16.510000000002037,16.784999999996217,16.645000000000437,16.74500000000262,16.664999999997235,16.709999999999127,16.645000000000437]",12,
-1,-1,RDK,92,22716,0.0-1.0-91.0,FALSE,"a,l",l,200,TRUE,200,1,0,0.5,2,-1,1,600,400,white,gray,3,2,2,16.69083333,"[17.659999999999854,15.779999999998836,16.86000000000422,16.594999999997526,16.600000000002183,16.729999999995925,16.715000000003783,16.709999999999127,16.624999999996362,16.760000000002037,16.639999999999418,16.6150000000016]",12,
-1,-1,RDK,93,22933,0.0-1.0-92.0,FALSE,"a,l",a,200,TRUE,200,1,180,0.5,2,-1,1,600,400,white,gray,3,2,2,16.65875,"[16.604999999999563,16.415000000000873,17.31999999999971,16.20499999999811,17.44499999999971,16.014999999999418,16.535000000003492,17.485000000000582,15.649999999997817,16.784999999999854,16.665000000000873,16.779999999998836]",12,
-1,-1,RDK,94,23150,0.0-1.0-93.0,FALSE,"a,l",l,200,TRUE,200,1,0,0.5,2,-1,1,600,400,white,gray,3,2,2,16.70666667,"[17.05999999999767,16.63000000000102,16.68999999999869,16.650000000001455,16.729999999999563,16.57999999999811,17.320000000003347,16.114999999997963,16.635000000002037,16.93999999999869,16.350000000002183,16.779999999995198]",12,
-1,-1,RDK,95,23366,0.0-1.0-94.0,FALSE,"a,l",a,200,TRUE,200,1,180,0.5,2,-1,1,600,400,white,gray,3,2,2,16.69791667,"[18.00500000000102,16.06499999999869,16.1349999999984,16.81999999999971,16.68000000000029,16.640000000003056,16.709999999999127,16.63000000000102,17.789999999997235,15.869999999998981,16.610000000000582,16.42000000000189]",12,
-1,-1,RDK,96,23583,0.0-1.0-95.0,FALSE,"a,l",l,200,TRUE,200,1,0,0.5,2,-1,1,600,400,white,gray,3,2,2,16.69791667,"[17.125,16.584999999999127,16.714999999996508,16.610000000000582,17.275000000001455,16.034999999999854,16.79500000000189,16.93999999999869,16.279999999998836,16.600000000002183,16.784999999999854,16.62999999999738]",12,
-1,-1,RDK,97,23799,0.0-1.0-96.0,FALSE,"a,l",a,200,TRUE,200,1,180,0.5,2,-1,1,600,400,white,gray,3,2,2,16.70166667,"[17.1150000000016,17.18000000000029,16.090000000000146,16.720000000001164,16.56499999999869,16.674999999999272,16.80500000000029,16.75,16.6150000000016,16.714999999996508,16.56500000000233,16.625]",12,
-1,-1,RDK,98,24016,0.0-1.0-97.0,FALSE,"a,l",a,200,TRUE,200,1,180,0.5,2,-1,1,600,400,white,gray,3,2,2,16.70791667,"[17.044999999998254,16.909999999999854,17.729999999999563,15.440000000002328,16.63000000000102,16.75499999999738,16.63000000000102,16.7300000000032,16.544999999994616,16.86000000000422,16.56499999999869,16.654999999998836]",12,
-1,-1,RDK,99,24232,0.0-1.0-98.0,FALSE,"a,l",l,200,TRUE,200,1,0,0.5,2,-1,1,600,400,white,gray,3,2,2,16.68583333,"[17.11999999999898,16.534999999999854,17.17000000000189,16.19499999999971,16.764999999999418,16.61999999999898,16.67000000000189,16.6349999999984,16.904999999998836,16.349999999998545,16.68000000000029,16.584999999999127]",12,
-1,-1,RDK,100,24450,0.0-1.0-99.0,FALSE,"a,l",l,200,TRUE,200,1,0,0.5,2,-1,1,600,400,white,gray,3,2,2,16.68833333,"[17.0199999999968,16.49499999999898,16.7400000000016,16.595000000001164,16.700000000000728,17.36999999999898,16.024999999997817,17.445000000003347,15.969999999997526,16.715000000000146,16.56499999999869,16.62000000000262]",12,
-1,-1,RDK,101,24667,0.0-1.0-100.0,FALSE,"a,l",a,200,TRUE,200,1,180,0.5,2,-1,1,600,400,white,gray,3,2,2,16.70833333,"[17.864999999997963,15.855000000003201,16.80999999999767,16.654999999998836,16.610000000000582,16.775000000001455,16.604999999999563,16.710000000002765,16.735000000000582,16.904999999995198,16.56000000000131,16.415000000000873]",12,
-1,-1,RDK,102,24883,0.0-1.0-101.0,FALSE,"a,l",l,200,TRUE,200,1,0,0.5,2,-1,1,600,400,white,gray,3,2,2,16.67583333,"[16.924999999999272,16.68999999999869,16.590000000000146,16.604999999999563,16.93999999999869,16.450000000004366,16.774999999997817,16.524999999997817,16.785000000003492,16.645000000000437,16.56999999999607,16.610000000000582]",12,
-1,-1,RDK,103,25100,0.0-1.0-102.0,FALSE,"a,l",a,200,TRUE,200,1,180,0.5,2,-1,1,600,400,white,gray,3,2,2,16.71,"[17.025000000001455,16.639999999999418,16.739999999997963,16.585000000002765,16.689999999995052,17.210000000002765,16.229999999999563,16.68500000000131,16.760000000002037,16.49499999999898,16.610000000000582,16.849999999994907]",12,
-1,-1,RDK,104,25317,0.0-1.0-103.0,FALSE,"a,l",l,200,TRUE,200,1,0,0.5,2,-1,1,600,400,white,gray,3,2,2,16.695,"[16.959999999999127,16.88000000000102,17.419999999998254,15.840000000003783,16.529999999998836,16.68000000000029,16.709999999999127,16.82999999999811,16.649999999997817,16.67500000000291,16.590000000000146,16.57499999999709]",12,
-1,-1,RDK,105,25533,0.0-1.0-104.0,FALSE,"a,l",l,200,TRUE,200,1,0,0.5,2,-1,1,600,400,white,gray,3,2,2,16.68875,"[17.159999999999854,16.595000000001164,16.895000000000437,16.349999999998545,16.700000000000728,16.845000000001164,16.6349999999984,16.510000000002037,16.739999999997963,16.674999999999272,16.62999999999738,16.530000000006112]",12,
-1,-1,RDK,106,25751,0.0-1.0-105.0,FALSE,"a,l",a,200,TRUE,200,1,180,0.5,2,-1,1,600,400,white,gray,3,2,2,16.70958333,"[17.1150000000016,16.63000000000102,16.599999999998545,16.660000000003492,16.69499999999607,16.6150000000016,16.575000000000728,16.94499999999971,16.610000000000582,16.735000000000582,16.744999999995343,16.590000000000146]",12,
-1,-1,RDK,107,25967,0.0-1.0-106.0,FALSE,"a,l",l,200,TRUE,200,1,0,0.5,2,-1,1,600,400,white,gray,3,2,2,16.70125,"[17.399999999997817,16.25500000000102,16.650000000001455,16.669999999998254,16.534999999999854,16.75,16.6349999999984,16.674999999999272,17.530000000002474,16.07999999999811,16.44000000000233,16.794999999998254]",12,
-1,-1,RDK,108,26182,0.0-1.0-107.0,FALSE,"a,l",l,200,TRUE,200,1,0,0.5,2,-1,1,600,400,white,gray,3,2,2,16.7,"[17.040000000000873,16.659999999999854,16.635000000002037,16.984999999996944,16.705000000001746,16.375,16.655000000002474,16.649999999997817,16.719999999997526,16.600000000002183,16.674999999999272]",11,
-1,-1,RDK,109,26384,0.0-1.0-108.0,FALSE,"a,l",a,200,TRUE,200,1,180,0.5,2,-1,1,600,400,white,gray,3,2,2,16.56291667,"[15.854999999999563,16.95499999999811,15.880000000001019,16.69999999999709,16.660000000003492,16.674999999999272,16.75500000000102,16.360000000000582,17.174999999999272,16.709999999999127,16.30500000000029,16.724999999998545]",12,
-1,-1,RDK,110,26601,0.0-1.0-109.0,FALSE,"a,l",a,200,TRUE,200,1,180,0.5,2,-1,1,600,400,white,gray,3,2,2,16.70458333,"[16.959999999999127,17.410000000003492,15.985000000000582,16.839999999996508,16.525000000001455,17.479999999999563,15.850000000002183,16.664999999997235,16.765000000003056,16.625,16.714999999996508,16.635000000002037]",12,
-1,-1,RDK,111,26817,0.0-1.0-110.0,FALSE,"a,l",l,200,TRUE,200,1,0,0.5,2,-1,1,600,400,white,gray,3,2,2,16.69708333,"[16.93500000000131,16.485000000000582,16.784999999996217,17.23500000000422,16.150000000001455,16.75999999999476,16.4900000000016,16.739999999997963,16.625000000003638,16.674999999999272,16.774999999997817,16.710000000002765]",12,
-1,-1,RDK,112,27035,0.0-1.0-111.0,FALSE,"a,l",l,200,TRUE,200,1,0,0.5,2,-1,1,600,400,white,gray,3,2,2,16.70583333,"[17.575000000000728,16.23500000000422,16.63999999999578,16.69000000000233,16.674999999999272,16.659999999999854,16.669999999998254,16.56500000000233,16.93000000000029,16.56499999999869,16.779999999998836,16.48500000000422]",12,
-1,-1,RDK,113,27249,0.0-1.0-112.0,FALSE,"a,l",a,200,TRUE,200,1,180,0.5,2,-1,1,600,400,white,gray,3,2,2,16.70363636,"[16.834999999999127,16.729999999999563,16.720000000001164,16.959999999999127,16.485000000000582,16.57499999999709,16.56500000000233,16.7400000000016,16.68499999999767,17.360000000000582,16.084999999999127]",11,
-1,-1,RDK,114,27450,0.0-1.0-113.0,FALSE,"a,l",a,200,TRUE,200,1,180,0.5,2,-1,1,600,400,white,gray,3,2,2,16.575,"[15.645000000000437,16.405000000002474,17.540000000000873,15.789999999997235,16.720000000001164,17.349999999998545,16.2599999999984,16.520000000000437,16.590000000000146,16.775000000001455,16.669999999998254,16.635000000002037]",12,
-1,-1,RDK,115,27669,0.0-1.0-114.0,FALSE,"a,l",l,200,TRUE,200,1,0,0.5,2,-1,1,600,400,white,gray,3,2,2,16.79833333,"[17.06499999999869,17.1449999999968,16.30500000000029,16.49500000000262,16.834999999999127,16.659999999999854,16.654999999998836,16.54500000000189,17.549999999999272,15.909999999999854,16.6349999999984,17.780000000002474]",12,
-1,-1,RDK,116,27884,0.0-1.0-115.0,FALSE,"a,l",a,200,TRUE,200,1,180,0.5,2,-1,1,600,400,white,gray,3,2,2,16.7075,"[17.085000000002765,16.669999999994616,16.580000000001746,16.485000000000582,17.044999999998254,16.520000000000437,16.640000000003056,16.665000000000873,16.659999999996217,16.725000000002183,17.24499999999898,16.169999999998254]",12,
-1,-1,RDK,117,28101,0.0-1.0-116.0,FALSE,"a,l",a,200,TRUE,200,1,180,0.5,2,-1,1,600,400,white,gray,3,2,2,16.69916667,"[17.174999999999272,16.44000000000233,16.56499999999869,16.86999999999898,16.57999999999811,16.650000000001455,16.735000000000582,16.770000000000437,16.590000000000146,16.654999999998836,16.7400000000016,16.61999999999898]",12,
-1,-1,RDK,118,28318,0.0-1.0-117.0,FALSE,"a,l",l,200,TRUE,200,1,0,0.5,2,-1,1,600,400,white,gray,3,2,2,16.70875,"[17.06999999999971,16.734999999996944,16.74499999999898,16.450000000004366,16.674999999999272,16.789999999997235,16.645000000000437,16.674999999999272,17.419999999998254,15.965000000003783,16.724999999998545,16.610000000000582]",12,
-1,-1,RDK,119,28534,0.0-1.0-118.0,FALSE,"a,l",l,200,TRUE,200,1,0,0.5,2,-1,1,600,400,white,gray,3,2,2,16.68458333,"[16.94999999999709,16.529999999998836,16.775000000005093,16.43000000000029,16.95499999999811,16.714999999996508,18.05000000000291,15.2599999999984,16.610000000000582,16.850000000002183,16.43500000000131,16.654999999998836]",12,
-1,-1,RDK,120,28751,0.0-1.0-119.0,FALSE,"a,l",a,200,TRUE,200,1,180,0.5,2,-1,1,600,400,white,gray,3,2,2,16.70083333,"[17.135000000002037,16.56000000000131,16.625,16.674999999999272,16.595000000001164,16.68499999999767,16.654999999998836,16.75500000000102,16.67500000000291,16.6349999999984,16.669999999998254,16.74500000000262]",12,
-1,-1,RDK,121,28968,0.0-1.0-120.0,FALSE,"a,l",l,200,TRUE,200,1,0,0.5,2,-1,1,600,400,white,gray,3,2,2,16.69083333,"[17.724999999998545,16.265000000003056,16.38000000000102,16.669999999998254,16.7300000000032,16.599999999994907,16.700000000000728,16.695000000003347,17.43499999999767,16.38000000000102,16.18999999999869,16.520000000000437]",12,
-1,-1,RDK,122,29184,0.0-1.0-121.0,FALSE,"a,l",a,200,TRUE,200,1,180,0.5,2,-1,1,600,400,white,gray,3,2,2,16.68666667,"[17.05999999999767,16.80000000000291,16.520000000000437,16.470000000001164,17.6349999999984,16.075000000000728,17.520000000000437,15.799999999999272,16.539999999997235,16.93500000000131,16.885000000002037,15.999999999996362]",12,
-1,-1,RDK,123,29402,0.0-1.0-122.0,FALSE,"a,l",a,200,TRUE,200,1,180,0.5,2,-1,1,600,400,white,gray,3,2,2,16.69208333,"[17.149999999997817,16.3550000000032,17.529999999998836,15.850000000002183,16.860000000000582,16.56999999999607,16.635000000002037,17.084999999999127,16.405000000002474,16.584999999999127,16.61999999999898,16.659999999999854]",12,
-1,-1,RDK,124,29618,0.0-1.0-123.0,FALSE,"a,l",l,200,TRUE,200,1,0,0.5,2,-1,1,600,400,white,gray,3,2,2,16.70625,"[16.889999999999418,16.81500000000233,16.774999999997817,16.6150000000016,16.665000000000873,16.4900000000016,16.62999999999738,16.655000000002474,17.6349999999984,15.81000000000131,16.649999999997817,16.845000000001164]",12,
-1,-1,RDK,125,29834,0.0-1.0-124.0,FALSE,"a,l",a,200,TRUE,200,1,180,0.5,2,-1,1,600,400,white,gray,3,2,2,16.69833333,"[16.959999999999127,16.645000000000437,16.610000000000582,16.584999999999127,17.3650000000016,16.229999999999563,16.639999999999418,16.674999999999272,16.80500000000393,16.609999999996944,16.650000000001455,16.604999999999563]",12,
-1,-1,RDK,126,30052,0.0-1.0-125.0,FALSE,"a,l",a,200,TRUE,200,1,180,0.5,2,-1,1,600,400,white,gray,3,2,2,16.69041667,"[17.044999999998254,16.510000000002037,16.67500000000291,16.6449999999968,16.69499999999971,16.7400000000016,16.584999999999127,16.549999999999272,16.81999999999971,29.74500000000262,3.430000000000291,16.844999999997526]",12,
-1,-1,RDK,127,30269,0.0-1.0-126.0,FALSE,"a,l",a,200,TRUE,200,1,180,0.5,2,-1,1,600,400,white,gray,3,2,2,16.70583333,"[17.0099999999984,16.56499999999869,16.69499999999971,16.830000000001746,16.714999999996508,17.375000000003638,15.87999999999738,16.715000000003783,16.56999999999607,16.715000000000146,16.825000000000728,16.575000000000728]",12,
-1,-1,RDK,128,30485,0.0-1.0-127.0,FALSE,"a,l",a,200,TRUE,200,1,180,0.5,2,-1,1,600,400,white,gray,3,2,2,16.70166667,"[17.00499999999738,16.62000000000262,16.80999999999767,16.770000000000437,16.424999999999272,16.794999999998254,16.67500000000291,16.599999999998545,16.67000000000189,16.849999999998545,16.595000000001164,16.604999999995925]",12,
-1,-1,RDK,129,30702,0.0-1.0-128.0,FALSE,"a,l",a,200,TRUE,200,1,180,0.5,2,-1,1,600,400,white,gray,3,2,2,16.68625,"[16.985000000000582,16.614999999997963,16.485000000000582,17.020000000000437,17.36999999999898,15.930000000003929,17.82999999999811,15.404999999998836,16.674999999999272,16.625,17.265000000003056,16.029999999995198]",12,
-1,-1,RDK,130,30918,0.0-1.0-129.0,FALSE,"a,l",a,200,TRUE,200,1,180,0.5,2,-1,1,600,400,white,gray,3,2,2,16.65916667,"[16.68499999999767,16.590000000003783,17.409999999999854,15.819999999999709,16.840000000000146,17.43999999999869,15.775000000001455,17.095000000001164,16.220000000001164,16.849999999994907,16.515000000003056,16.669999999998254]",12,
-1,-1,RDK,131,31135,0.0-1.0-130.0,FALSE,"a,l",l,200,TRUE,200,1,0,0.5,2,-1,1,600,400,white,gray,3,2,2,16.70791667,"[17,16.62999999999738,16.830000000001746,16.57999999999811,16.75500000000102,16.465000000000146,16.700000000000728,16.75500000000102,17.56499999999869,15.755000000001019,16.724999999998545,16.735000000000582]",12,
-1,-1,RDK,132,31351,0.0-1.0-131.0,FALSE,"a,l",l,200,TRUE,200,1,0,0.5,2,-1,1,600,400,white,gray,3,2,2,16.69541667,"[17.17000000000189,16.955000000001746,16.18499999999767,16.7400000000016,16.67000000000189,16.82499999999709,17.525000000001455,16.729999999999563,15.584999999999127,16.69999999999709,17.075000000004366,16.18499999999767]",12,
-1,-1,RDK,133,31569,0.0-1.0-132.0,FALSE,"a,l",l,200,TRUE,200,1,0,0.5,2,-1,1,600,400,white,gray,3,2,2,16.69958333,"[17.109999999993306,16.66500000000451,16.554999999996653,16.88000000000102,16.6150000000016,16.654999999998836,16.715000000000146,17.570000000003347,15.774999999997817,16.54500000000189,16.57499999999709,16.73500000000422]",12,
-1,-1,RDK,134,31786,0.0-1.0-133.0,FALSE,"a,l",a,200,TRUE,200,1,180,0.5,2,-1,1,600,400,white,gray,3,2,2,16.69041667,"[17.68500000000131,15.93999999999869,17.715000000003783,15.764999999999418,16.594999999997526,16.50500000000102,16.764999999999418,16.599999999998545,17.599999999998545,15.970000000004802,16.539999999997235,16.604999999999563]",12,
-1,-1,RDK,135,32001,0.0-1.0-134.0,FALSE,"a,l",a,200,TRUE,200,1,180,0.5,2,-1,1,600,400,white,gray,3,2,2,16.69045455,"[16.989999999997963,17.75500000000102,15.599999999998545,17.43000000000029,15.880000000001019,16.714999999996508,16.43500000000131,16.82499999999709,16.514999999999418,16.790000000000873,16.659999999999854]",11,
-1,-1,RDK,136,32202,0.0-1.0-135.0,FALSE,"a,l",l,200,TRUE,200,1,0,0.5,2,-1,1,600,400,white,gray,3,2,2,16.53791667,"[15.144999999996799,16.755000000004657,16.5099999999984,16.885000000002037,16.590000000000146,16.539999999997235,16.82999999999811,16.460000000006403,16.984999999993306,16.635000000002037,16.455000000001746,16.664999999993597]",12,
-1,-1,RDK,137,32417,0.0-1.0-136.0,FALSE,"a,l",a,200,TRUE,200,1,180,0.5,2,-1,1,600,400,white,gray,3,2,2,16.72272727,"[16.99500000000262,16.875,16.665000000000873,17.339999999996508,16.455000000001746,17.529999999998836,16.55999999999767,16.710000000006403,15.344999999993888,17.155000000006112,16.31999999999971]",11,
-1,-1,RDK,138,32620,0.0-1.0-137.0,FALSE,"a,l",l,200,TRUE,200,1,0,0.5,2,-1,1,600,400,white,gray,3,2,2,16.50916667,"[14.815000000002328,17.739999999997963,15.590000000003783,16.62999999999738,16.56500000000233,17.44999999999709,15.979999999995925,17.435000000004948,16.104999999995925,16.360000000000582,16.65000000000873,16.789999999993597]",12,
-1,-1,RDK,139,32836,0.0-1.0-138.0,FALSE,"a,l",a,200,TRUE,200,1,180,0.5,2,-1,1,600,400,white,gray,3,2,2,16.7025,"[17.955000000001746,15.770000000004075,16.660000000003492,16.599999999998545,16.714999999996508,16.784999999996217,16.715000000003783,16.489999999997963,17.765000000006694,15.779999999998836,16.689999999995052,16.505000000004657]",12,
-1,-1,RDK,140,33053,0.0-1.0-139.0,FALSE,"a,l",a,200,TRUE,200,1,180,0.5,2,-1,1,600,400,white,gray,3,2,2,16.68958333,"[16.964999999996508,16.739999999997963,16.540000000000873,16.80500000000029,16.814999999995052,16.510000000002037,16.61500000000524,16.794999999998254,16.510000000002037,16.659999999996217,17.19999999999709,16.12000000000262]",12,
-1,-1,RDK,141,33270,0.0-1.0-140.0,FALSE,"a,l",l,200,TRUE,200,1,0,0.5,2,-1,1,600,400,white,gray,3,2,2,16.70208333,"[17.200000000004366,16.540000000000873,17.630000000004657,15.669999999998254,16.75499999999738,16.639999999999418,17.299999999995634,15.895000000004075,16.779999999998836,16.935000000004948,16.534999999996217,16.544999999998254]",12,
-1,-1,RDK,142,33486,0.0-1.0-141.0,FALSE,"a,l",l,200,TRUE,200,1,0,0.5,2,-1,1,600,400,white,gray,3,2,2,16.71541667,"[17.81999999999971,15.82499999999709,17.785000000003492,15.810000000004948,16.499999999992724,16.765000000006694,16.744999999988067,16.635000000002037,16.61500000000524,16.645000000004075,16.619999999995343,16.81999999999971]",12,
-1,-1,RDK,143,33701,0.0-1.0-142.0,FALSE,"a,l",l,200,TRUE,200,1,0,0.5,2,-1,1,600,400,white,gray,3,2,2,16.71272727,"[17.06999999999971,16.720000000001164,16.68499999999767,17.69499999999971,15.635000000002037,16.80000000000291,16.6050000000032,16.614999999997963,16.594999999993888,16.735000000007858,16.684999999990396]",11,
-1,-1,RDK,144,33904,0.0-1.0-143.0,FALSE,"a,l",l,200,TRUE,200,1,0,0.5,2,-1,1,600,400,white,gray,3,2,2,16.575,"[15.47500000000582,16.469999999993888,16.779999999998836,16.61500000000524,16.614999999997963,16.80999999999767,17.385000000002037,15.734999999993306,16.885000000002037,16.640000000006694,16.57499999999709,16.915000000000873]",12,
-1,-1,RDK,145,34118,0.0-1.0-144.0,FALSE,"a,l",a,200,TRUE,200,1,180,0.5,2,-1,1,600,400,white,gray,3,2,2,16.70772727,"[17.084999999999127,16.659999999996217,16.880000000004657,16.535000000003492,16.799999999995634,16.43499999999767,16.81500000000233,16.660000000003492,16.679999999993015,17.450000000004366,15.785000000003492]",11,
-1,-1,RDK,146,34320,0.0-1.0-145.0,FALSE,"a,l",a,200,TRUE,200,1,180,0.5,2,-1,1,600,400,white,gray,3,2,2,16.57083333,"[15.664999999993597,16.460000000006403,16.70499999999447,16.775000000001455,16.56999999999971,17.44999999999709,16.25,16.380000000004657,16.614999999997963,16.790000000000873,16.68499999999767,16.505000000004657]",12,
-1,-1,RDK,147,34537,0.0-1.0-146.0,FALSE,"a,l",l,200,TRUE,200,1,0,0.5,2,-1,1,600,400,white,gray,3,2,2,16.71375,"[17.875,15.665000000000873,16.68000000000029,16.735000000000582,16.659999999996217,16.555000000007567,16.720000000001164,16.504999999990105,16.935000000004948,16.599999999998545,16.715000000003783,16.919999999998254]",12,
-1,-1,RDK,148,34752,0.0-1.0-147.0,FALSE,"a,l",l,200,TRUE,200,1,0,0.5,2,-1,1,600,400,white,gray,3,2,2,16.69,"[17.05999999999767,16.69499999999971,16.575000000004366,16.779999999998836,16.75,16.57999999999447,16.695000000006985,16.604999999995925,16.760000000002037,16.69999999999709,16.525000000001455,16.55500000000029]",12,
-1,-1,RDK,149,34968,0.0-1.0-148.0,FALSE,"a,l",a,200,TRUE,200,1,180,0.5,2,-1,1,600,400,white,gray,3,2,2,16.71727273,"[17.090000000003783,17.665000000000873,15.509999999994761,16.709999999999127,16.87000000000262,16.61500000000524,16.749999999992724,17.540000000000873,15.655000000006112,17.494999999995343,15.990000000005239]",11,
-1,-1,RDK,150,35170,0.0-1.0-149.0,FALSE,"a,l",a,200,TRUE,200,1,180,0.5,2,-1,1,600,400,white,gray,3,2,2,16.56791667,"[15.410000000003492,16.55000000000291,16.69999999999709,16.665000000000873,16.804999999993015,17.330000000001746,16.62999999999738,15.92500000000291,16.655000000006112,16.68000000000029,16.479999999995925,16.985000000000582]",12,
-1,-1,RDK,151,35387,0.0-1.0-150.0,FALSE,"a,l",l,200,TRUE,200,1,0,0.5,2,-1,1,600,400,white,gray,3,2,2,16.71291667,"[17.15499999999156,16.520000000004075,16.595000000001164,16.75499999999738,16.669999999998254,16.895000000004075,16.665000000000873,17.584999999999127,15.604999999995925,16.915000000000873,16.485000000000582,16.709999999999127]",12,
-1,-1,RDK,152,35604,0.0-1.0-151.0,FALSE,"a,l",l,200,TRUE,200,1,0,0.5,2,-1,1,600,400,white,gray,3,2,2,16.70541667,"[17.159999999996217,17.765000000006694,15.440000000002328,16.669999999998254,16.87000000000262,16.525000000001455,16.549999999995634,16.82999999999447,16.765000000006694,16.69000000000233,16.595000000001164,16.604999999995925]",12,
-1,-1,RDK,153,35818,0.0-1.0-152.0,FALSE,"a,l",l,200,TRUE,200,1,0,0.5,2,-1,1,600,400,white,gray,3,2,2,16.71681818,"[17.18000000000029,16.44999999999709,16.784999999996217,17.430000000007567,16.080000000001746,16.55999999999767,16.635000000002037,16.639999999992142,16.60000000000582,16.77499999999418,16.75]",11,
-1,-1,RDK,154,36021,0.0-1.0-153.0,FALSE,"a,l",a,200,TRUE,200,1,180,0.5,2,-1,1,600,400,white,gray,3,2,2,16.59208333,"[15.665000000008149,17.034999999996217,16.214999999996508,16.7300000000032,16.82499999999709,17.790000000000873,15.334999999999127,16.825000000004366,16.669999999998254,16.64999999999418,16.635000000002037,16.7300000000032]",12,
-1,-1,RDK,155,36237,0.0-1.0-154.0,FALSE,"a,l",l,200,TRUE,200,1,0,0.5,2,-1,1,600,400,white,gray,3,2,2,16.68916667,"[16.93499999999767,16.635000000002037,16.69999999999709,16.669999999998254,16.65000000000873,16.739999999997963,16.57999999999447,16.755000000004657,17.55999999999767,15.930000000000291,16.669999999998254,16.44499999999971]",12,
-1,-1,RDK,156,36453,0.0-1.0-155.0,FALSE,"a,l",a,200,TRUE,200,1,180,0.5,2,-1,1,600,400,white,gray,3,2,2,16.71291667,"[17.200000000004366,16.424999999995634,16.959999999999127,16.389999999999418,16.735000000000582,16.630000000004657,16.734999999993306,16.775000000001455,16.6449999999968,16.810000000004948,16.55000000000291,16.69999999999709]",12,
-1,-1,RDK,157,36670,0.0-1.0-156.0,FALSE,"a,l",a,200,TRUE,200,1,180,0.5,2,-1,1,600,400,white,gray,3,2,2,16.68291667,"[16.99500000000262,16.61500000000524,16.514999999992142,16.710000000006403,16.764999999999418,16.56500000000233,16.7699999999968,17.599999999998545,15.755000000004657,16.669999999998254,16.59999999999127,16.635000000002037]",12,
-1,-1,RDK,158,36887,0.0-1.0-157.0,FALSE,"a,l",l,200,TRUE,200,1,0,0.5,2,-1,1,600,400,white,gray,3,2,2,16.71375,"[17.084999999999127,16.82499999999709,17.60000000000582,15.679999999993015,16.65000000000873,17.544999999998254,15.735000000000582,16.734999999993306,16.735000000007858,16.684999999990396,16.575000000004366,16.714999999996508]",12,
-1,-1,RDK,159,37104,0.0-1.0-158.0,FALSE,"a,l",a,200,TRUE,200,1,180,0.5,2,-1,1,600,400,white,gray,3,2,2,16.70041667,"[17,16.625,16.62999999999738,16.860000000000582,16.56500000000233,16.515000000006694,16.689999999995052,16.784999999996217,16.575000000004366,16.68000000000029,16.764999999999418,16.714999999996508]",12,
-1,-1,RDK,160,37321,0.0-1.0-159.0,FALSE,"a,l",l,200,TRUE,200,1,0,0.5,2,-1,1,600,400,white,gray,3,2,2,16.70416667,"[17.039999999993597,16.560000000004948,16.779999999998836,16.685000000004948,16.604999999995925,16.669999999998254,16.535000000003492,16.974999999998545,16.635000000002037,16.469999999993888,17.780000000006112,15.714999999996508]",12,
-1,-1,RDK,161,37537,0.0-1.0-160.0,FALSE,"a,l",l,200,TRUE,200,1,0,0.5,2,-1,1,600,400,white,gray,3,2,2,16.69458333,"[17.500000000007276,16.739999999997963,16.099999999998545,16.735000000000582,16.61500000000524,16.52499999999418,16.69000000000233,16.650000000001455,16.599999999998545,17.010000000002037,17.314999999995052,15.855000000003201]",12,
-1,-1,RDK,162,37755,0.0-1.0-161.0,FALSE,"a,l",a,200,TRUE,200,1,180,0.5,2,-1,1,600,400,white,gray,3,2,2,16.66958333,"[15.939999999995052,16.410000000003492,16.589999999996508,16.860000000000582,16.6050000000032,16.749999999992724,16.69000000000233,16.750000000007276,16.63499999999476,16.669999999998254,16.535000000003492,17.599999999998545]",12,
-1,-1,RDK,163,37971,0.0-1.0-162.0,FALSE,"a,l",a,200,TRUE,200,1,180,0.5,2,-1,1,600,400,white,gray,3,2,2,16.7075,"[17.035000000003492,16.50999999999476,16.739999999997963,16.80000000000291,16.880000000004657,17.529999999998836,15.52499999999418,16.810000000004948,16.839999999996508,16.439999999995052,16.710000000006403,16.669999999998254]",12,
-1,-1,RDK,164,38188,0.0-1.0-163.0,FALSE,"a,l",a,200,TRUE,200,1,180,0.5,2,-1,1,600,400,white,gray,3,2,2,16.69541667,"[17.24000000000524,16.494999999995343,16.770000000004075,16.669999999998254,16.494999999995343,16.610000000000582,16.845000000001164,16.485000000000582,16.705000000001746,16.6449999999968,16.779999999998836,16.6050000000032]",12,
-1,-1,RDK,165,38402,0.0-1.0-164.0,FALSE,"a,l",a,200,TRUE,200,1,180,0.5,2,-1,1,600,400,white,gray,3,2,2,16.70318182,"[17.099999999998545,16.605000000010477,16.679999999993015,16.780000000006112,16.689999999995052,17.479999999995925,15.775000000008731,16.564999999995052,16.950000000004366,16.37999999999738,16.729999999995925]",11,
-1,-1,RDK,166,38604,0.0-1.0-165.0,FALSE,"a,l",a,200,TRUE,200,1,180,0.5,2,-1,1,600,400,white,gray,3,2,2,16.55166667,"[15.25,16.515000000006694,16.90499999999156,16.685000000004948,16.50999999999476,16.790000000000873,16.6050000000032,16.650000000001455,16.854999999995925,16.650000000001455,16.534999999996217,16.67000000000553]",12,
-1,-1,RDK,167,38822,0.0-1.0-166.0,FALSE,"a,l",a,200,TRUE,200,1,180,0.5,2,-1,1,600,400,white,gray,3,2,2,16.72375,"[17.25499999999738,16.57499999999709,17.6050000000032,15.720000000001164,16.664999999993597,16.860000000000582,16.654999999998836,17.340000000003783,15.815000000002328,16.834999999999127,16.50999999999476,16.85000000000582]",12,
-1,-1,RDK,168,39038,0.0-1.0-167.0,FALSE,"a,l",l,200,TRUE,200,1,0,0.5,2,-1,1,600,400,white,gray,3,2,2,16.69791667,"[17.044999999990978,16.515000000006694,16.57499999999709,17.50499999999738,16.435000000004948,16.0199999999968,16.840000000003783,16.854999999995925,16.49500000000262,16.715000000003783,16.625,16.75]",12,
-1,-1,RDK,169,39255,0.0-1.0-168.0,FALSE,"a,l",l,200,TRUE,200,1,0,0.5,2,-1,1,600,400,white,gray,3,2,2,16.71083333,"[16.989999999997963,17.779999999998836,15.724999999998545,16.56500000000233,16.635000000002037,16.599999999998545,16.764999999999418,17.255000000004657,16.089999999996508,17.714999999996508,15.569999999999709,16.840000000003783]",12,
-1,-1,RDK,170,39472,0.0-1.0-169.0,FALSE,"a,l",l,200,TRUE,200,1,0,0.5,2,-1,1,600,400,white,gray,3,2,2,16.69708333,"[16.914999999993597,16.62000000000262,16.68499999999767,16.67500000000291,16.8949999999968,16.44000000000233,16.744999999995343,16.61500000000524,16.62999999999738,16.885000000002037,16.625,16.635000000002037]",12,
-1,-1,RDK,171,39688,0.0-1.0-170.0,FALSE,"a,l",l,200,TRUE,200,1,0,0.5,2,-1,1,600,400,white,gray,3,2,2,16.69958333,"[17.30000000000291,16.464999999996508,17.47500000000582,15.689999999995052,16.764999999999418,16.959999999999127,16.400000000001455,16.709999999999127,16.580000000001746,16.900000000001455,16.514999999999418,16.635000000002037]",12,
-1,-1,RDK,172,39905,0.0-1.0-171.0,FALSE,"a,l",a,200,TRUE,200,1,180,0.5,2,-1,1,600,400,white,gray,3,2,2,16.70458333,"[16.779999999998836,16.705000000001746,16.790000000000873,16.755000000004657,16.889999999992142,16.435000000004948,16.69499999999971,16.514999999999418,16.62000000000262,16.939999999995052,16.75,16.580000000001746]",12,
-1,-1,RDK,173,40122,0.0-1.0-172.0,FALSE,"a,l",l,200,TRUE,200,1,0,0.5,2,-1,1,600,400,white,gray,3,2,2,16.70083333,"[17.060000000004948,17.429999999993015,15.955000000009022,16.57999999999447,17.44499999999971,16.11500000000524,16.57999999999447,16.544999999998254,16.750000000007276,17.854999999995925,16.314999999995052,15.779999999998836]",12,
-1,-1,RDK,174,40338,0.0-1.0-173.0,FALSE,"a,l",a,200,TRUE,200,1,180,0.5,2,-1,1,600,400,white,gray,3,2,2,16.69958333,"[17.244999999995343,16.25499999999738,16.77500000000873,16.654999999998836,16.82499999999709,16.60000000000582,16.65999999998894,17.395000000004075,16.125,17.780000000006112,15.439999999995052,16.639999999999418]",12,
-1,-1,RDK,175,40555,0.0-1.0-174.0,FALSE,"a,l",a,200,TRUE,200,1,180,0.5,2,-1,1,600,400,white,gray,3,2,2,16.70958333,"[18.014999999999418,15.694999999999709,16.81500000000233,16.660000000003492,16.75999999999476,16.540000000000873,16.605000000010477,17.064999999995052,17.45499999999447,15.560000000004948,16.785000000003492,16.55999999999767]",12,
-1,-1,RDK,176,40772,0.0-1.0-175.0,FALSE,"a,l",a,200,TRUE,200,1,180,0.5,2,-1,1,600,400,white,gray,3,2,2,16.71166667,"[16.909999999996217,16.595000000001164,17.05500000000029,16.270000000004075,16.964999999996508,16.55500000000029,16.67500000000291,16.639999999992142,16.575000000004366,16.779999999998836,16.715000000003783,16.80500000000029]",12,
-1,-1,RDK,177,40988,0.0-1.0-176.0,FALSE,"a,l",a,200,TRUE,200,1,180,0.5,2,-1,1,600,400,white,gray,3,2,2,16.60416667,"[16.185000000004948,16.419999999990978,16.72500000000582,16.614999999997963,16.705000000001746,18.214999999996508,15.279999999998836,16.555000000007567,16.56999999999971,16.625,16.739999999997963,16.614999999997963]",12,
-1,-1,RDK,178,41205,0.0-1.0-177.0,FALSE,"a,l",a,200,TRUE,200,1,180,0.5,2,-1,1,600,400,white,gray,3,2,2,16.69875,"[17.014999999999418,16.715000000003783,18.165000000000873,15.02499999999418,17.375,16.18499999999767,16.635000000002037,16.540000000000873,16.780000000006112,16.69499999999971,16.799999999995634,16.45499999999447]",12,
-1,-1,RDK,179,41422,0.0-1.0-178.0,FALSE,"a,l",l,200,TRUE,200,1,0,0.5,2,-1,1,600,400,white,gray,3,2,2,16.70666667,"[17.060000000004948,16.664999999993597,16.715000000003783,16.665000000000873,16.75,16.714999999996508,16.510000000002037,16.68000000000029,16.69000000000233,16.635000000002037,17.159999999996217,16.235000000000582]",12,
-1,-1,RDK,180,41639,0.0-1.0-179.0,FALSE,"a,l",a,200,TRUE,200,1,180,0.5,2,-1,1,600,400,white,gray,3,2,2,16.71166667,"[17.215000000003783,16.44000000000233,17.784999999996217,15.635000000002037,16.69999999999709,16.720000000001164,16.529999999998836,16.739999999997963,16.735000000000582,16.830000000001746,16.43000000000029,16.779999999998836]",12,
-1,-1,RDK,181,41856,0.0-1.0-180.0,FALSE,"a,l",l,200,TRUE,200,1,0,0.5,2,-1,1,600,400,white,gray,3,2,2,16.7025,"[17.469999999993888,16.049999999995634,17.62000000000262,15.80000000000291,16.69499999999971,16.535000000003492,16.719999999993888,16.720000000001164,16.55999999999767,16.860000000000582,17.635000000002037,15.764999999999418]",12,
-1,-1,RDK,182,42070,0.0-1.0-181.0,FALSE,"a,l",l,200,TRUE,200,1,0,0.5,2,-1,1,600,400,white,gray,3,2,2,16.69,"[16.85000000000582,16.775000000001455,16.529999999998836,16.900000000001455,16.665000000000873,16.67500000000291,16.5199999999968,16.799999999995634,16.7300000000032,16.520000000004075,16.624999999992724]",11,
-1,-1,RDK,183,42272,0.0-1.0-182.0,FALSE,"a,l",a,200,TRUE,200,1,180,0.5,2,-1,1,600,400,white,gray,3,2,2,16.56666667,"[15.525000000001455,16.479999999995925,16.67000000000553,16.694999999992433,16.590000000003783,16.724999999998545,16.94999999999709,16.35000000000582,16.744999999995343,16.685000000004948,16.625,16.75999999999476]",12,
-1,-1,RDK,184,42489,0.0-1.0-183.0,FALSE,"a,l",a,200,TRUE,200,1,180,0.5,2,-1,1,600,400,white,gray,3,2,2,16.72291667,"[16.919999999998254,16.77499999999418,16.55000000000291,16.69499999999971,16.685000000004948,17.629999999990105,15.85000000000582,16.510000000002037,16.834999999999127,16.70499999999447,16.530000000006112,16.989999999997963]",12,
-1,-1,RDK,185,42706,0.0-1.0-184.0,FALSE,"a,l",l,200,TRUE,200,1,0,0.5,2,-1,1,600,400,white,gray,3,2,2,16.69708333,"[16.94000000000233,16.575000000004366,16.849999999998545,16.624999999992724,16.650000000001455,16.764999999999418,17.6050000000032,15.905000000006112,16.514999999992142,16.650000000001455,16.705000000001746,16.57999999999447]",12,
-1,-1,RDK,186,42923,0.0-1.0-185.0,FALSE,"a,l",a,200,TRUE,200,1,180,0.5,2,-1,1,600,400,white,gray,3,2,2,16.6975,"[17.06999999999971,16.689999999995052,16.465000000003783,16.6449999999968,16.885000000002037,16.525000000001455,16.709999999999127,17.74500000000262,15.719999999993888,16.47500000000582,16.775000000001455,16.665000000000873]",12,
-1,-1,RDK,187,43139,0.0-1.0-186.0,FALSE,"a,l",l,200,TRUE,200,1,0,0.5,2,-1,1,600,400,white,gray,3,2,2,16.70375,"[17.039999999993597,16.515000000006694,16.77499999999418,16.705000000001746,16.74500000000262,16.544999999998254,16.735000000000582,16.715000000003783,16.614999999990687,16.735000000007858,16.639999999999418,16.679999999993015]",12,
-1,-1,RDK,188,43356,0.0-1.0-187.0,FALSE,"a,l",l,200,TRUE,200,1,0,0.5,2,-1,1,600,400,white,gray,3,2,2,16.69958333,"[16.88499999999476,16.654999999998836,16.825000000004366,16.474999999998545,17.159999999996217,16.17000000000553,16.869999999995343,16.81500000000233,16.544999999998254,16.779999999998836,16.560000000004948,16.654999999998836]",12,
-1,-1,RDK,189,43573,0.0-1.0-188.0,FALSE,"a,l",l,200,TRUE,200,1,0,0.5,2,-1,1,600,400,white,gray,3,2,2,16.6375,"[16.44999999999709,17.744999999995343,16.175000000010186,15.805000000000291,16.624999999992724,16.80500000000029,16.654999999998836,17.290000000000873,16.5,17.325000000004366,15.609999999993306,16.665000000000873]",12,
-1,-1,RDK,190,43790,0.0-1.0-189.0,FALSE,"a,l",a,200,TRUE,200,1,180,0.5,2,-1,1,600,400,white,gray,3,2,2,16.70916667,"[16.974999999998545,16.639999999999418,17.514999999999418,15.940000000002328,16.669999999998254,16.665000000000873,16.660000000003492,16.80999999999767,16.599999999998545,16.674999999995634,17.655000000006112,15.70499999999447]",12,
-1,-1,RDK,191,44006,0.0-1.0-190.0,FALSE,"a,l",a,200,TRUE,200,1,180,0.5,2,-1,1,600,400,white,gray,3,2,2,16.70625,"[16.970000000001164,16.639999999999418,16.69000000000233,16.64999999999418,16.62000000000262,17.885000000002037,15.634999999994761,16.6050000000032,16.69499999999971,16.834999999999127,16.625,16.625]",12,
-1,-1,RDK,192,44223,0.0-1.0-191.0,FALSE,"a,l",a,200,TRUE,200,1,180,0.5,2,-1,1,600,400,white,gray,3,2,2,16.69208333,"[16.974999999998545,16.674999999995634,16.710000000006403,16.654999999998836,17.095000000001164,16.1449999999968,16.720000000001164,16.625,16.825000000004366,16.694999999992433,16.685000000004948,16.5]",12,
-1,-1,RDK,193,44440,0.0-1.0-192.0,FALSE,"a,l",l,200,TRUE,200,1,0,0.5,2,-1,1,600,400,white,gray,3,2,2,16.70791667,"[17.11500000000524,16.709999999999127,16.75499999999738,16.54500000000553,17.859999999993306,15.485000000000582,16.6050000000032,16.715000000003783,16.610000000000582,16.77499999999418,17.345000000001164,15.974999999998545]",12,
-1,-1,RDK,194,44657,0.0-1.0-193.0,FALSE,"a,l",a,200,TRUE,200,1,180,0.5,2,-1,1,600,400,white,gray,3,2,2,16.60125,"[15.77499999999418,16.689999999995052,16.825000000004366,16.540000000000873,16.705000000001746,16.635000000002037,16.744999999995343,16.68000000000029,16.474999999998545,16.654999999998836,16.875000000007276,16.614999999990687]",12,
-1,-1,RDK,195,44874,0.0-1.0-194.0,FALSE,"a,l",l,200,TRUE,200,1,0,0.5,2,-1,1,600,400,white,gray,3,2,2,16.67583333,"[17.584999999999127,15.610000000000582,16.580000000001746,17.625,15.75,17.705000000001746,15.664999999993597,17.135000000009313,16.32999999999447,16.614999999997963,16.885000000002037,16.625]",12,
-1,-1,RDK,196,45090,0.0-1.0-195.0,FALSE,"a,l",a,200,TRUE,200,1,180,0.5,2,-1,1,600,400,white,gray,3,2,2,16.5975,"[15.849999999998545,16.470000000001164,16.799999999995634,16.67500000000291,16.775000000001455,16.69000000000233,16.55999999999767,16.660000000003492,16.789999999993597,16.744999999995343,16.47000000000844,16.68499999999767]",12,
-1,-1,RDK,197,45307,0.0-1.0-196.0,FALSE,"a,l",l,200,TRUE,200,1,0,0.5,2,-1,1,600,400,white,gray,3,2,2,16.64166667,"[16.459999999999127,16.595000000001164,16.57499999999709,16.6050000000032,16.68499999999767,17.635000000002037,15.764999999999418,17.584999999999127,15.775000000001455,16.8949999999968,16.529999999998836,16.595000000001164]",12,
-1,-1,RDK,198,45524,0.0-1.0-197.0,FALSE,"a,l",l,200,TRUE,200,1,0,0.5,2,-1,1,600,400,white,gray,3,2,2,16.71875,"[17.19499999999971,16.584999999999127,17.284999999996217,15.895000000004075,16.80999999999767,16.62000000000262,16.68000000000029,16.75499999999738,16.635000000002037,16.720000000001164,16.715000000003783,16.729999999995925]",12,
-1,-1,RDK,199,45740,0.0-1.0-198.0,FALSE,"a,l",l,200,TRUE,200,1,0,0.5,2,-1,1,600,400,white,gray,3,2,2,16.70708333,"[16.985000000007858,16.70999999999185,16.79500000000553,16.6449999999968,16.87000000000262,16.6449999999968,17.715000000003783,15.555000000000291,16.56999999999971,16.735000000000582,16.764999999999418,16.494999999995343]",12,
-1,-1,RDK,200,45957,0.0-1.0-199.0,FALSE,"a,l",a,200,TRUE,200,1,180,0.5,2,-1,1,600,400,white,gray,3,2,2,16.70333333,"[17.12999999999738,16.540000000000873,16.669999999998254,16.755000000004657,16.599999999998545,16.719999999993888,16.714999999996508,16.645000000004075,16.720000000001164,16.610000000000582,16.62999999999738,16.705000000001746]",12,