rt,key_press,trial_type,trial_index,time_elapsed,internal_node_id,correct,choices,correct_choice,trial_duration,response_ends_trial,number_of_dots,number_of_sets,coherent_direction,coherence,dot_radius,dot_life,move_distance,aperture_width,aperture_height,dot_color,background_color,RDK_type,aperture_type,reinsert_type,frame_rate,frame_rate_array,number_of_frames,
6132,13,text,0,6134,0.0-0.0,,,,,,,,,,,,,,,,,,,,,,,firefox
-1,-1,RDK,1,7364,0.0-1.0-0.0,FALSE,"a,l",l,200,TRUE,200,1,0,0.5,2,-1,1,600,400,white,gray,3,2,2,22.21333333,"[36.64499999999953,9.1850000000004,70.71000000000004,4.130000000000109,14.944999999999709,16.1850000000004,14.335000000000036,17.17999999999938,16.605000000000473]",9,
-1,-1,RDK,2,7581,0.0-1.0-1.0,FALSE,"a,l",a,200,TRUE,200,1,180,0.5,2,-1,1,600,400,white,gray,3,2,2,18.175,"[16.30500000000029,16.579999999999927,37.25,12.359999999999673,17.31500000000051,16.595000000000255,16.909999999999854,16.545000000000073,16.69499999999971,16,17.36999999999989]",11,
-1,-1,RDK,3,7796,0.0-1.0-2.0,FALSE,"a,l",l,200,TRUE,200,1,0,0.5,2,-1,1,600,400,white,gray,3,2,2,18.18454545,"[17.74000000000069,16.56999999999971,15.625,17.590000000000146,15.854999999999563,16.545000000000073,34.70499999999993,15.675000000000182,16.909999999999854,16.150000000000546,16.664999999999964]",11,
-1,-1,RDK,4,8014,0.0-1.0-3.0,FALSE,"a,l",a,200,TRUE,200,1,180,0.5,2,-1,1,600,400,white,gray,3,2,2,16.6925,"[16.6850000000004,16.649999999999636,17.225000000000364,16.279999999999745,16.479999999999563,17.850000000000364,19.095000000000255,14.459999999999127,16.56000000000131,16.06999999999971,16.69999999999891,16.25500000000102]",12,
-1,-1,RDK,5,8232,0.0-1.0-4.0,FALSE,"a,l",l,200,TRUE,200,1,0,0.5,2,-1,1,600,400,white,gray,3,2,2,18.24045455,"[16.335000000000946,17.280000000000655,16.81499999999869,16.729999999999563,15.660000000001673,17.484999999998763,34.89000000000124,15.869999999998981,16.13500000000022,16.69000000000051,16.7549999999992]",11,
-1,-1,RDK,6,8446,0.0-1.0-5.0,FALSE,"a,l",a,200,TRUE,200,1,180,0.5,2,-1,1,600,400,white,gray,3,2,2,18.28272727,"[18.019999999998618,16.4950000000008,16.590000000000146,16.55500000000029,16.63500000000022,16.679999999998472,33.88500000000022,16.354999999999563,16.660000000001673,16.584999999999127,16.649999999999636]",11,
-1,-1,RDK,7,8663,0.0-1.0-6.0,FALSE,"a,l",l,200,TRUE,200,1,0,0.5,2,-1,1,600,400,white,gray,3,2,2,16.71,"[17.280000000000655,21.590000000000146,11.829999999999927,16.284999999999854,16.88000000000102,16.349999999998545,16.63000000000102,16.664999999999054,16.790000000000873,15.7549999999992,17.350000000000364,17.11499999999978]",12,
-1,-1,RDK,8,8882,0.0-1.0-7.0,FALSE,"a,l",a,200,TRUE,200,1,180,0.5,2,-1,1,600,400,white,gray,3,2,2,18.22954545,"[17.085000000000946,16.599999999998545,16.570000000001528,16.599999999998545,33.30000000000109,16.99499999999898,16.470000000001164,16.73999999999978,16.6299999999992,16.7450000000008,16.789999999999054]",11,
-1,-1,RDK,9,9094,0.0-1.0-8.0,FALSE,"a,l",a,200,TRUE,200,1,180,0.5,2,-1,1,600,400,white,gray,3,2,2,18.3965,"[17.584999999999127,16.420000000000073,16.575000000000728,16.585000000000946,16.68499999999949,16.625,36.465000000000146,13.614999999999782,16.670000000000073,16.73999999999978]",10,
-1,-1,RDK,10,9297,0.0-1.0-9.0,FALSE,"a,l",l,200,TRUE,200,1,0,0.5,2,-1,1,600,400,white,gray,3,2,2,18.11818182,"[15.895000000000437,16.659999999999854,16.68000000000029,16.11499999999978,17.295000000000073,16.68499999999949,34.04500000000007,16.020000000000437,16.579999999999927,15.639999999999418,17.68500000000131]",11,
-1,-1,RDK,11,9512,0.0-1.0-10.0,FALSE,"a,l",l,200,TRUE,200,1,0,0.5,2,-1,1,600,400,white,gray,3,2,2,16.68625,"[17.070000000001528,16.55999999999949,16.81500000000051,16.534999999999854,16.644999999998618,15.795000000000073,17.284999999999854,16.920000000000073,16.605000000001382,16.674999999999272,16.715000000000146,16.61499999999978]",12,
-1,-1,RDK,12,9730,0.0-1.0-11.0,FALSE,"a,l",a,200,TRUE,200,1,180,0.5,2,-1,1,600,400,white,gray,3,2,2,16.71666667,"[16.30999999999949,17.584999999999127,16.69000000000051,16.670000000000073,16.575000000000728,17.725000000000364,15.654999999998836,16.75,15.755000000001019,17.524999999999636,16.604999999999563,16.75500000000102]",12,
-1,-1,RDK,13,9946,0.0-1.0-12.0,FALSE,"a,l",a,200,TRUE,200,1,180,0.5,2,-1,1,600,400,white,gray,3,2,2,16.68583333,"[16.264999999999418,17.600000000000364,16.56999999999971,17.659999999999854,16.73999999999978,16.00500000000102,16.529999999998836,16.795000000000073,16.42500000000109,17.039999999999054,16.389999999999418,16.210000000000946]",12,
-1,-1,RDK,14,10164,0.0-1.0-13.0,FALSE,"a,l",l,200,TRUE,200,1,0,0.5,2,-1,1,600,400,white,gray,3,2,2,16.69041667,"[17.26000000000022,16.579999999999927,16.534999999999854,16.649999999999636,16.860000000000582,15.56499999999869,20.784999999999854,14.194999999999709,15.910000000001673,16.61999999999898,16.700000000000728,16.625]",12,
-1,-1,RDK,15,10379,0.0-1.0-14.0,FALSE,"a,l",l,200,TRUE,200,1,0,0.5,2,-1,1,600,400,white,gray,3,2,2,18.22681818,"[16.299999999999272,17.485000000000582,16.709999999999127,16.715000000000146,16.585000000000946,16.659999999999854,34.05999999999949,15.860000000000582,16.854999999999563,16.729999999999563,16.534999999999854]",11,
-1,-1,RDK,16,10599,0.0-1.0-15.0,FALSE,"a,l",l,200,TRUE,200,1,0,0.5,2,-1,1,600,400,white,gray,3,2,2,18.18545455,"[17.25,16.729999999999563,16.575000000000728,15.989999999999782,17.420000000000073,16.68499999999949,33.82500000000073,16.715000000000146,16.284999999999854,16.5049999999992,16.05999999999949]",11,
-1,-1,RDK,17,10815,0.0-1.0-16.0,FALSE,"a,l",l,200,TRUE,200,1,0,0.5,2,-1,1,600,400,white,gray,3,2,2,18.24590909,"[17.25,16.730000000001382,16.514999999999418,16.674999999999272,16.649999999999636,15.68500000000131,34.82999999999993,16.469999999999345,16.585000000000946,16.579999999999927,16.734999999998763]",11,
-1,-1,RDK,18,11029,0.0-1.0-17.0,FALSE,"a,l",a,200,TRUE,200,1,180,0.5,2,-1,1,600,400,white,gray,3,2,2,16.70625,"[16.2450000000008,17.269999999998618,16.93500000000131,16.679999999998472,16.63000000000102,16.645000000000437,16.724999999998545,26.090000000000146,6.319999999999709,17.55000000000109,16.81500000000051,16.56999999999971]",12,
-1,-1,RDK,19,11249,0.0-1.0-18.0,FALSE,"a,l",a,200,TRUE,200,1,180,0.5,2,-1,1,600,400,white,gray,3,2,2,18.17636364,"[17.210000000000946,16.719999999999345,16.55999999999949,36.090000000000146,13.950000000000728,16.6299999999992,16.68000000000029,16.68499999999949,16.650000000001455,16.654999999998836,16.110000000000582]",11,
-1,-1,RDK,20,11462,0.0-1.0-19.0,FALSE,"a,l",l,200,TRUE,200,1,0,0.5,2,-1,1,600,400,white,gray,3,2,2,18.21590909,"[17.079999999999927,16.700000000000728,15.954999999999927,17.274999999999636,16.659999999999854,16.704999999999927,36.2450000000008,14.349999999998545,16.150000000001455,16.6299999999992,16.625]",11,
-1,-1,RDK,21,11680,0.0-1.0-20.0,FALSE,"a,l",l,200,TRUE,200,1,0,0.5,2,-1,1,600,400,white,gray,3,2,2,18.23454545,"[16.11999999999898,17.38500000000022,17.030000000000655,16.56999999999971,15.635000000000218,17.679999999998472,33.94500000000153,15.724999999998545,17.01000000000022,17.034999999999854,16.445000000001528]",11,
-1,-1,RDK,22,11896,0.0-1.0-21.0,FALSE,"a,l",a,200,TRUE,200,1,180,0.5,2,-1,1,600,400,white,gray,3,2,2,18.18590909,"[17.360000000000582,16.73999999999978,16.465000000000146,15.7549999999992,17.43000000000029,16.770000000000437,34.01000000000022,16.07499999999891,16.695000000001528,16.644999999998618,16.100000000000364]",11,
-1,-1,RDK,23,12115,0.0-1.0-22.0,FALSE,"a,l",a,200,TRUE,200,1,180,0.5,2,-1,1,600,400,white,gray,3,2,2,18.22181818,"[17.05500000000029,16.715000000000146,16.465000000000146,16.6200000000008,16.639999999999418,16.63500000000022,33.92000000000007,16.389999999999418,16.450000000000728,16.719999999999345,16.829999999999927]",11,
-1,-1,RDK,24,12328,0.0-1.0-23.0,FALSE,"a,l",a,200,TRUE,200,1,180,0.5,2,-1,1,600,400,white,gray,3,2,2,16.71636364,"[16.399999999999636,17.015000000001237,17.090000000000146,16.584999999999127,16.655000000000655,16.664999999999054,16.700000000000728,16.68499999999949,15.675000000001091,16.69999999999891,17.710000000000946]",11,
-1,-1,RDK,25,12534,0.0-1.0-24.0,FALSE,"a,l",a,200,TRUE,200,1,180,0.5,2,-1,1,600,400,white,gray,3,2,2,18.19,"[16.590000000000146,16.709999999999127,16.600000000000364,16.61499999999978,15.885000000000218,34.23500000000058,16.829999999999927,16.645000000000437,16.079999999999927,17.334999999999127,16.56500000000051]",11,
-1,-1,RDK,26,12748,0.0-1.0-25.0,FALSE,"a,l",a,200,TRUE,200,1,180,0.5,2,-1,1,600,400,white,gray,3,2,2,18.28818182,"[18.030000000000655,16.784999999999854,16.344999999999345,16.6200000000008,16.599999999998545,16.775000000001455,33.664999999999054,20.670000000000073,12.430000000000291,16.594999999999345,16.655000000000655]",11,
-1,-1,RDK,27,12965,0.0-1.0-26.0,FALSE,"a,l",a,200,TRUE,200,1,180,0.5,2,-1,1,600,400,white,gray,3,2,2,18.22818182,"[22.36499999999978,10.860000000000582,16.270000000000437,17.110000000000582,16.68499999999949,16.61499999999978,34.49499999999898,15.805000000000291,15.659999999999854,17.290000000000873,17.354999999999563]",11,
-1,-1,RDK,28,13184,0.0-1.0-27.0,FALSE,"a,l",l,200,TRUE,200,1,0,0.5,2,-1,1,600,400,white,gray,3,2,2,18.13909091,"[16.234999999998763,16.540000000000873,16.860000000000582,16.429999999998472,15.630000000001019,17.420000000000073,34.33499999999913,16.00500000000102,16.69499999999971,16.534999999999854,16.844999999999345]",11,
-1,-1,RDK,29,13397,0.0-1.0-28.0,FALSE,"a,l",l,200,TRUE,200,1,0,0.5,2,-1,1,600,400,white,gray,3,2,2,16.75541667,"[17.720000000001164,16.659999999999854,16.644999999998618,16.670000000000073,16.645000000000437,16.63000000000102,16.69999999999891,26,7.405000000000655,16.715000000000146,16.68499999999949,16.590000000000146]",12,
-1,-1,RDK,30,13613,0.0-1.0-29.0,FALSE,"a,l",a,200,TRUE,200,1,180,0.5,2,-1,1,600,400,white,gray,3,2,2,18.23363636,"[17.209999999999127,16.659999999999854,16.110000000000582,36.61000000000058,13.909999999999854,16.670000000000073,16.724999999998545,16.6200000000008,15.680000000000291,17.264999999999418,17.110000000000582]",11,
-1,-1,RDK,31,13830,0.0-1.0-30.0,FALSE,"a,l",l,200,TRUE,200,1,0,0.5,2,-1,1,600,400,white,gray,3,2,2,18.24727273,"[17.43499999999949,16.67500000000109,16.57499999999891,16.75,15.675000000001091,17.32499999999891,36.43000000000029,13.829999999999927,16.75,16.610000000000582,16.664999999999054]",11,
-1,-1,RDK,32,14048,0.0-1.0-31.0,FALSE,"a,l",l,200,TRUE,200,1,0,0.5,2,-1,1,600,400,white,gray,3,2,2,16.79833333,"[18.079999999999927,16.695000000001528,16.55999999999949,16.69999999999891,16.645000000000437,16.6200000000008,17.8799999999992,15.454999999999927,16.954999999999927,16.61499999999978,16.140000000001237,17.234999999998763]",12,
-1,-1,RDK,33,14265,0.0-1.0-32.0,FALSE,"a,l",a,200,TRUE,200,1,180,0.5,2,-1,1,600,400,white,gray,3,2,2,18.24818182,"[17.30999999999949,16.784999999999854,15.81000000000131,17.404999999998836,16.470000000001164,16.75,33.69499999999971,16.350000000000364,15.625,17.394999999998618,17.13500000000022]",11,
-1,-1,RDK,34,14483,0.0-1.0-33.0,FALSE,"a,l",l,200,TRUE,200,1,0,0.5,2,-1,1,600,400,white,gray,3,2,2,18.25363636,"[17.284999999999854,16.69000000000051,16.465000000000146,16.405000000000655,16.0049999999992,17.280000000000655,34.30999999999949,16.18499999999949,16.585000000000946,16.725000000000364,16.854999999999563]",11,
-1,-1,RDK,35,14698,0.0-1.0-34.0,FALSE,"a,l",l,200,TRUE,200,1,0,0.5,2,-1,1,600,400,white,gray,3,2,2,16.77333333,"[18.099999999998545,16.640000000001237,25.475000000000364,15.444999999999709,8.954999999999927,16.664999999999054,16.704999999999927,15.905000000000655,17.389999999999418,16.68500000000131,16.514999999999418,16.799999999999272]",12,
-1,-1,RDK,36,14912,0.0-1.0-35.0,FALSE,"a,l",l,200,TRUE,200,1,0,0.5,2,-1,1,600,400,white,gray,3,2,2,16.68954545,"[17.170000000000073,15.710000000000946,17.01000000000022,17.264999999999418,16.709999999999127,16.56500000000051,17.549999999999272,16.56500000000051,15.985000000000582,15.704999999999927,17.350000000000364]",11,
-1,-1,RDK,37,15118,0.0-1.0-36.0,FALSE,"a,l",l,200,TRUE,200,1,0,0.5,2,-1,1,600,400,white,gray,3,2,2,18.11636364,"[16.18999999999869,16.51000000000022,16.7450000000008,16.399999999999636,16.55500000000029,15.645000000000437,35.13999999999942,16.204999999999927,16.5049999999992,16.645000000000437,16.73999999999978]",11,
-1,-1,RDK,38,15330,0.0-1.0-37.0,FALSE,"a,l",a,200,TRUE,200,1,180,0.5,2,-1,1,600,400,white,gray,3,2,2,16.7125,"[16.68000000000029,17.095000000001164,16.875,16.154999999998836,17.05500000000029,16.645000000000437,16.68000000000029,16.654999999998836,15.780000000000655,17.48999999999978,16.55999999999949,16.88000000000102]",12,
-1,-1,RDK,39,15551,0.0-1.0-38.0,FALSE,"a,l",a,200,TRUE,200,1,180,0.5,2,-1,1,600,400,white,gray,3,2,2,18.21136364,"[17.235000000000582,16.63000000000102,16.68999999999869,15.925000000001091,17.454999999999927,16.68000000000029,32.2599999999984,17.715000000000146,16.704999999999927,16.63000000000102,16.399999999999636]",11,
-1,-1,RDK,40,15767,0.0-1.0-39.0,FALSE,"a,l",l,200,TRUE,200,1,0,0.5,2,-1,1,600,400,white,gray,3,2,2,16.7125,"[17.460000000000946,16.6299999999992,16.515000000001237,16.584999999999127,16.63000000000102,15.6299999999992,32.399999999999636,1.7700000000004366,16.780000000000655,16.289999999999054,17.170000000000073,16.69000000000051]",12,
-1,-1,RDK,41,15985,0.0-1.0-40.0,FALSE,"a,l",a,200,TRUE,200,1,180,0.5,2,-1,1,600,400,white,gray,3,2,2,18.26590909,"[16.234999999998763,17.409999999999854,16.875,16.765000000001237,16.55999999999949,16.68499999999949,34.100000000000364,15.645000000000437,16.94499999999971,16.965000000000146,16.73999999999978]",11,
-1,-1,RDK,42,16198,0.0-1.0-41.0,FALSE,"a,l",l,200,TRUE,200,1,0,0.5,2,-1,1,600,400,white,gray,3,2,2,16.68291667,"[17.4900000000016,16.459999999999127,16.575000000000728,16.154999999998836,17.610000000000582,16.549999999999272,17.6150000000016,16.019999999998618,16.139999999999418,16.69499999999971,16.845000000001164,16.040000000000873]",12,
-1,-1,RDK,43,16414,0.0-1.0-42.0,FALSE,"a,l",a,200,TRUE,200,1,180,0.5,2,-1,1,600,400,white,gray,3,2,2,16.69875,"[17.294999999998254,16.31000000000131,16.80500000000029,16.584999999999127,16.639999999999418,15.655000000002474,17.169999999998254,17.224999999998545,16.7300000000032,16.56999999999971,16,17.399999999997817]",12,
-1,-1,RDK,44,16631,0.0-1.0-43.0,FALSE,"a,l",a,200,TRUE,200,1,180,0.5,2,-1,1,600,400,white,gray,3,2,2,16.71916667,"[16.07999999999811,17.465000000000146,16.950000000000728,16.225000000002183,32.95499999999811,2.0800000000017462,15.849999999998545,16.31000000000131,15.81499999999869,17.470000000001164,17.090000000000146,16.340000000000146]",12,
-1,-1,RDK,45,16849,0.0-1.0-44.0,FALSE,"a,l",a,200,TRUE,200,1,180,0.5,2,-1,1,600,400,white,gray,3,2,2,18.20818182,"[17.159999999999854,16.49500000000262,16.875,15.829999999998108,17.465000000000146,16.81499999999869,35.580000000001746,14.790000000000873,15.305000000000291,17.889999999999418,16.084999999999127]",11,
-1,-1,RDK,46,17066,0.0-1.0-45.0,FALSE,"a,l",a,200,TRUE,200,1,180,0.5,2,-1,1,600,400,white,gray,3,2,2,16.69666667,"[17.2599999999984,16.665000000000873,16.514999999999418,16.599999999998545,16.784999999999854,16.635000000002037,16.014999999999418,17.165000000000873,16.68499999999767,16.705000000001746,16.625,16.70499999999811]",12,
-1,-1,RDK,47,17282,0.0-1.0-46.0,FALSE,"a,l",a,200,TRUE,200,1,180,0.5,2,-1,1,600,400,white,gray,3,2,2,16.72916667,"[17.18000000000029,16.30500000000029,17.090000000000146,16.669999999998254,15.635000000002037,17.715000000000146,30.844999999997526,1.7900000000008731,16.4900000000016,17.360000000000582,16.899999999997817,16.770000000000437]",12,
-1,-1,RDK,48,17498,0.0-1.0-47.0,FALSE,"a,l",a,200,TRUE,200,1,180,0.5,2,-1,1,600,400,white,gray,3,2,2,18.19,"[20.43000000000029,13.084999999999127,16.844999999997526,15.820000000003347,17.459999999999127,16.790000000000873,33.72999999999956,16.474999999998545,15.694999999999709,17.55500000000029,16.205000000001746]",11,
-1,-1,RDK,49,17716,0.0-1.0-48.0,FALSE,"a,l",a,200,TRUE,200,1,180,0.5,2,-1,1,600,400,white,gray,3,2,2,16.67208333,"[17.025000000001455,15.844999999997526,17.205000000001746,16.69499999999971,16.604999999999563,16.68500000000131,16.099999999998545,17.290000000000873,16.6150000000016,16.75499999999738,16.610000000000582,16.635000000002037]",12,
-1,-1,RDK,50,17932,0.0-1.0-49.0,FALSE,"a,l",a,200,TRUE,200,1,180,0.5,2,-1,1,600,400,white,gray,3,2,2,18.25272727,"[17.215000000000146,16.264999999999418,17.11999999999898,16.639999999999418,32.36999999999898,17.81000000000131,16.54500000000189,15.789999999997235,17.38000000000102,16.92000000000189,16.724999999998545]",11,
-1,-1,RDK,51,18149,0.0-1.0-50.0,FALSE,"a,l",a,200,TRUE,200,1,180,0.5,2,-1,1,600,400,white,gray,3,2,2,18.17227273,"[17.450000000000728,16.56500000000233,16.549999999999272,15.684999999997672,17.400000000001455,16.845000000001164,36.93999999999869,13.659999999999854,16.1150000000016,16.729999999999563,15.954999999998108]",11,
-1,-1,RDK,52,18367,0.0-1.0-51.0,FALSE,"a,l",l,200,TRUE,200,1,0,0.5,2,-1,1,600,400,white,gray,3,2,2,18.24045455,"[17.450000000000728,16.650000000001455,16.459999999999127,16.63000000000102,16.62999999999738,16.68000000000029,34.04000000000087,16.229999999999563,16.479999999999563,16.720000000001164,16.674999999999272]",11,
-1,-1,RDK,53,18583,0.0-1.0-52.0,FALSE,"a,l",a,200,TRUE,200,1,180,0.5,2,-1,1,600,400,white,gray,3,2,2,18.24772727,"[17.31499999999869,16.31500000000233,16.99499999999898,16.590000000000146,16.584999999999127,16.654999999998836,33.78500000000349,15.289999999997235,17.43000000000029,17.095000000001164,16.669999999998254]",11,
-1,-1,RDK,54,18798,0.0-1.0-53.0,FALSE,"a,l",a,200,TRUE,200,1,180,0.5,2,-1,1,600,400,white,gray,3,2,2,18.155,"[17.19499999999971,16.674999999999272,15.690000000002328,16.50499999999738,17.29500000000189,17.014999999999418,33.66500000000087,16.43999999999869,16.580000000001746,16.68000000000029,15.964999999996508]",11,
-1,-1,RDK,55,19016,0.0-1.0-54.0,FALSE,"a,l",a,200,TRUE,200,1,180,0.5,2,-1,1,600,400,white,gray,3,2,2,16.70083333,"[17.3849999999984,16.31000000000131,16.67000000000189,16.674999999999272,16.63000000000102,16.669999999998254,15.965000000000146,17.419999999998254,16.645000000000437,16.75500000000102,16.580000000001746,16.70499999999811]",12,
-1,-1,RDK,56,19232,0.0-1.0-55.0,FALSE,"a,l",l,200,TRUE,200,1,0,0.5,2,-1,1,600,400,white,gray,3,2,2,16.71208333,"[17.215000000000146,16.114999999997963,17.360000000000582,16.50500000000102,16.014999999999418,16.649999999997817,18.215000000000146,15.87000000000262,16.584999999999127,16.18500000000131,16.864999999997963,16.965000000000146]",12,
-1,-1,RDK,57,19449,0.0-1.0-56.0,FALSE,"a,l",l,200,TRUE,200,1,0,0.5,2,-1,1,600,400,white,gray,3,2,2,18.17045455,"[17.205000000001746,16.06999999999971,17.340000000000146,15.715000000000146,17.209999999999127,17.095000000001164,35.969999999997526,14.485000000000582,16.18000000000029,16.735000000000582,15.869999999998981]",11,
-1,-1,RDK,58,19667,0.0-1.0-57.0,FALSE,"a,l",l,200,TRUE,200,1,0,0.5,2,-1,1,600,400,white,gray,3,2,2,18.23545455,"[17.235000000000582,16.860000000000582,16.359999999996944,16.650000000001455,16.654999999998836,16.665000000000873,34.1150000000016,16.229999999999563,16.50500000000102,16.549999999999272,16.764999999999418]",11,
-1,-1,RDK,59,19883,0.0-1.0-58.0,FALSE,"a,l",l,200,TRUE,200,1,0,0.5,2,-1,1,600,400,white,gray,3,2,2,18.24545455,"[17.149999999997817,16.30000000000291,17.044999999998254,16.514999999999418,16.604999999999563,16.67000000000189,34.01499999999942,15.1349999999984,17.200000000000728,17.090000000000146,16.975000000002183]",11,
-1,-1,RDK,60,20100,0.0-1.0-59.0,FALSE,"a,l",l,200,TRUE,200,1,0,0.5,2,-1,1,600,400,white,gray,3,2,2,18.17272727,"[17.38000000000102,16.68499999999767,16.525000000001455,15.559999999997672,17.280000000002474,17.219999999997526,33.04000000000087,17.6150000000016,15.985000000000582,16.7599999999984,15.849999999998545]",11,
-1,-1,RDK,61,20317,0.0-1.0-60.0,FALSE,"a,l",l,200,TRUE,200,1,0,0.5,2,-1,1,600,400,white,gray,3,2,2,16.72958333,"[17.734999999996944,15.525000000001455,17.474999999998545,16.595000000001164,16.700000000000728,16.674999999999272,15.8650000000016,17.354999999999563,16.895000000000437,16.639999999999418,16.6349999999984,16.659999999999854]",12,
-1,-1,RDK,62,20532,0.0-1.0-61.0,FALSE,"a,l",l,200,TRUE,200,1,0,0.5,2,-1,1,600,400,white,gray,3,2,2,16.72416667,"[20.18000000000029,13,17.37999999999738,16.645000000000437,32.220000000001164,1.9700000000011642,16.24499999999898,16.375,16.610000000000582,16.389999999999418,17.5,16.174999999999272]",12,
-1,-1,RDK,63,20750,0.0-1.0-62.0,FALSE,"a,l",a,200,TRUE,200,1,180,0.5,2,-1,1,600,400,white,gray,3,2,2,18.16136364,"[17.149999999997817,16.530000000002474,16.924999999999272,15.599999999998545,17.210000000002765,17.209999999999127,35.64999999999782,14.895000000000437,16.31500000000233,16.735000000000582,15.554999999996653]",11,
-1,-1,RDK,64,20968,0.0-1.0-63.0,FALSE,"a,l",l,200,TRUE,200,1,0,0.5,2,-1,1,600,400,white,gray,3,2,2,18.26136364,"[17.799999999999272,16.590000000000146,16.50500000000102,16.485000000000582,16.68999999999869,16.645000000000437,34.2400000000016,16.825000000000728,15.784999999999854,16.8949999999968,16.415000000000873]",11,
-1,-1,RDK,65,21184,0.0-1.0-64.0,FALSE,"a,l",l,200,TRUE,200,1,0,0.5,2,-1,1,600,400,white,gray,3,2,2,18.25590909,"[17.38000000000102,16.11999999999898,16.659999999999854,17.17000000000189,16.61999999999898,16.88000000000102,34.279999999998836,15.979999999999563,15.665000000000873,17.4900000000016,16.56999999999971]",11,
-1,-1,RDK,66,21402,0.0-1.0-65.0,FALSE,"a,l",a,200,TRUE,200,1,180,0.5,2,-1,1,600,400,white,gray,3,2,2,18.13545455,"[17.095000000001164,16.664999999997235,16.7400000000016,16.590000000000146,16.139999999999418,17.25,33.4900000000016,17.044999999998254,16.18999999999869,16.845000000001164,15.440000000002328]",11,
-1,-1,RDK,67,21617,0.0-1.0-66.0,FALSE,"a,l",a,200,TRUE,200,1,180,0.5,2,-1,1,600,400,white,gray,3,2,2,16.73041667,"[17.63000000000102,16.13000000000102,16.974999999998545,16.63000000000102,16.665000000000873,16.69999999999709,15.760000000002037,17.284999999999854,17.00500000000102,16.674999999999272,16.49499999999898,16.81500000000233]",12,
-1,-1,RDK,68,21834,0.0-1.0-67.0,FALSE,"a,l",l,200,TRUE,200,1,0,0.5,2,-1,1,600,400,white,gray,3,2,2,16.73791667,"[17.19000000000233,15.904999999998836,17.294999999998254,16.875,32.16500000000087,2.1199999999989814,16.104999999999563,16.290000000000873,16.709999999999127,16.05000000000291,17.485000000000582,16.664999999997235]",12,
-1,-1,RDK,69,22052,0.0-1.0-68.0,FALSE,"a,l",l,200,TRUE,200,1,0,0.5,2,-1,1,600,400,white,gray,3,2,2,16.6,"[17.150000000001455,16.57999999999811,16.400000000001455,16.854999999999563,16.18000000000029,17.20499999999811,16.540000000000873,16.350000000002183,16.959999999999127,16.654999999998836,16.665000000000873,15.659999999999854]",12,
-1,-1,RDK,70,22265,0.0-1.0-69.0,FALSE,"a,l",l,200,TRUE,200,1,0,0.5,2,-1,1,600,400,white,gray,3,2,2,16.76590909,"[17.57999999999811,16.165000000000873,17.169999999998254,16.68000000000029,16.62000000000262,16.68499999999767,30.94499999999971,1.805000000000291,17.375,16.674999999999272,16.725000000002183]",11,
-1,-1,RDK,71,22470,0.0-1.0-70.0,FALSE,"a,l",a,200,TRUE,200,1,180,0.5,2,-1,1,600,400,white,gray,3,2,2,16.62208333,"[16.395000000000437,16.595000000001164,15.819999999999709,17.56499999999869,16.80000000000291,16.61999999999898,15.465000000000146,17.549999999999272,16.705000000001746,16.669999999998254,15.93999999999869,17.340000000000146]",12,
-1,-1,RDK,72,22682,0.0-1.0-71.0,FALSE,"a,l",l,200,TRUE,200,1,0,0.5,2,-1,1,600,400,white,gray,3,2,2,16.70958333,"[16.31999999999971,17.549999999999272,16.584999999999127,16.63000000000102,16.700000000000728,16.0099999999984,17.354999999999563,16.385000000002037,16.139999999999418,17.470000000001164,16.054999999996653,17.31500000000233]",12,
-1,-1,RDK,73,22900,0.0-1.0-72.0,FALSE,"a,l",a,200,TRUE,200,1,180,0.5,2,-1,1,600,400,white,gray,3,2,2,16.71875,"[16.604999999999563,17.404999999998836,16.475000000002183,17.419999999998254,16.68000000000029,16.075000000000728,16.724999999998545,15.860000000000582,17.159999999999854,17.025000000001455,16.735000000000582,16.459999999999127]",12,
-1,-1,RDK,74,23118,0.0-1.0-73.0,FALSE,"a,l",a,200,TRUE,200,1,180,0.5,2,-1,1,600,400,white,gray,3,2,2,16.73791667,"[17.299999999999272,16.510000000002037,16.2599999999984,16.705000000001746,16.95499999999811,16.635000000002037,19.094999999997526,14.659999999999854,16.38000000000102,16.68500000000131,15.869999999998981,17.799999999999272]",12,
-1,-1,RDK,75,23333,0.0-1.0-74.0,FALSE,"a,l",l,200,TRUE,200,1,0,0.5,2,-1,1,600,400,white,gray,3,2,2,16.70666667,"[17.344999999997526,16.610000000000582,16.75500000000102,16.61999999999898,16.68000000000029,15.965000000000146,17.345000000001164,16.55500000000029,16.609999999996944,17.19000000000233,16.45499999999811,16.350000000002183]",12,
-1,-1,RDK,76,23551,0.0-1.0-75.0,FALSE,"a,l",l,200,TRUE,200,1,0,0.5,2,-1,1,600,400,white,gray,3,2,2,16.7175,"[16.520000000000437,17.330000000001746,16.544999999998254,16.709999999999127,16.56000000000131,16.735000000000582,31.020000000000437,1.7799999999988358,17.654999999998836,16.31000000000131,16.784999999999854,16.659999999999854]",12,
-1,-1,RDK,77,23771,0.0-1.0-76.0,FALSE,"a,l",a,200,TRUE,200,1,180,0.5,2,-1,1,600,400,white,gray,3,2,2,18.24045455,"[20.43999999999869,13.090000000000146,15.985000000000582,17.395000000000437,16.985000000000582,16.664999999997235,33.82500000000073,16.720000000001164,16.224999999998545,15.880000000001019,17.43500000000131]",11,
-1,-1,RDK,78,23985,0.0-1.0-77.0,FALSE,"a,l",a,200,TRUE,200,1,180,0.5,2,-1,1,600,400,white,gray,3,2,2,16.70541667,"[17.090000000000146,16.735000000000582,16.610000000000582,15.974999999998545,17.4900000000016,15.985000000000582,17.375,16.349999999998545,16.81999999999971,16.4900000000016,16.25,17.294999999998254]",12,
-1,-1,RDK,79,24200,0.0-1.0-78.0,FALSE,"a,l",l,200,TRUE,200,1,0,0.5,2,-1,1,600,400,white,gray,3,2,2,18.22409091,"[16.534999999999854,17.465000000000146,16.485000000000582,33.16500000000087,16.900000000001455,16.764999999999418,16.49499999999898,16.200000000000728,17.149999999997817,16.650000000001455,16.654999999998836]",11,
-1,-1,RDK,80,24418,0.0-1.0-79.0,FALSE,"a,l",a,200,TRUE,200,1,180,0.5,2,-1,1,600,400,white,gray,3,2,2,18.23954545,"[17.264999999999418,16.68499999999767,15.625,17.375,16.965000000000146,16.67000000000189,35.595000000001164,14.869999999998981,16.239999999997963,15.850000000002183,17.49499999999898]",11,
-1,-1,RDK,81,24632,0.0-1.0-80.0,FALSE,"a,l",a,200,TRUE,200,1,180,0.5,2,-1,1,600,400,white,gray,3,2,2,18.39,"[17.325000000000728,16.529999999998836,16.895000000000437,16.299999999999272,16.62000000000262,15.834999999999127,35.224999999998545,15.75,16.69499999999971,16.725000000002183]",10,
-1,-1,RDK,82,24836,0.0-1.0-81.0,FALSE,"a,l",l,200,TRUE,200,1,0,0.5,2,-1,1,600,400,white,gray,3,2,2,18.09,"[15.470000000001164,16.014999999999418,17.25,16.729999999999563,16.63000000000102,16.705000000001746,34.05500000000029,16.12999999999738,16.100000000002183,17.2599999999984,16.645000000000437]",11,
-1,-1,RDK,83,25054,0.0-1.0-82.0,FALSE,"a,l",a,200,TRUE,200,1,180,0.5,2,-1,1,600,400,white,gray,3,2,2,16.63416667,"[17.06999999999971,16.404999999998836,16.985000000000582,15.639999999999418,17.19499999999971,17.235000000000582,16.604999999999563,17.195000000003347,16.5099999999984,16.31000000000131,16.75,15.709999999999127]",12,
-1,-1,RDK,84,25268,0.0-1.0-83.0,FALSE,"a,l",l,200,TRUE,200,1,0,0.5,2,-1,1,600,400,white,gray,3,2,2,16.70958333,"[17.520000000000437,16.489999999997963,16.584999999999127,20.965000000000146,19.790000000000873,9.145000000000437,15.854999999999563,17.424999999999272,16.87000000000262,16.609999999996944,16.640000000003056,16.61999999999898]",12,
-1,-1,RDK,85,25483,0.0-1.0-84.0,FALSE,"a,l",a,200,TRUE,200,1,180,0.5,2,-1,1,600,400,white,gray,3,2,2,18.3935,"[17.19000000000233,15.969999999997526,17.3650000000016,16.729999999999563,16.544999999998254,16.034999999999854,35.93500000000131,14.840000000000146,16.200000000000728,17.125]",10,
-1,-1,RDK,86,25686,0.0-1.0-85.0,FALSE,"a,l",l,200,TRUE,200,1,0,0.5,2,-1,1,600,400,white,gray,3,2,2,18.08636364,"[15.200000000000728,16.5099999999984,16.770000000000437,16.530000000002474,15.654999999998836,17.25,34.61000000000058,15.94999999999709,16.735000000000582,16.56999999999971,17.17000000000189]",11,
-1,-1,RDK,87,25899,0.0-1.0-86.0,FALSE,"a,l",l,200,TRUE,200,1,0,0.5,2,-1,1,600,400,white,gray,3,2,2,18.463,"[17.56000000000131,16.86999999999898,16.80000000000291,16.590000000000146,16.69999999999709,15.775000000001455,34.36499999999796,17.030000000002474,16.30500000000029,16.6349999999984]",10,
-1,-1,RDK,88,26104,0.0-1.0-87.0,FALSE,"a,l",l,200,TRUE,200,1,0,0.5,2,-1,1,600,400,white,gray,3,2,2,16.49458333,"[15.56499999999869,16.400000000001455,16.389999999999418,16.095000000001164,17.44999999999709,16.665000000000873,16.75,16.635000000002037,16.594999999997526,16.709999999999127,16.665000000000873,16.014999999999418]",12,
-1,-1,RDK,89,26318,0.0-1.0-88.0,FALSE,"a,l",a,200,TRUE,200,1,180,0.5,2,-1,1,600,400,white,gray,3,2,2,16.73666667,"[17.29500000000189,16.709999999999127,16.54500000000189,16.709999999999127,32.345000000001164,2,15.849999999998545,16.625,16.75500000000102,15.844999999997526,17.775000000001455,16.3849999999984]",12,
-1,-1,RDK,90,26534,0.0-1.0-89.0,FALSE,"a,l",a,200,TRUE,200,1,180,0.5,2,-1,1,600,400,white,gray,3,2,2,18.20954545,"[16.790000000000873,17.00500000000102,16.614999999997963,16.56500000000233,15.895000000000437,17.459999999999127,36.2599999999984,12.909999999999854,17.325000000000728,16.525000000001455,16.95499999999811]",11,
-1,-1,RDK,91,26752,0.0-1.0-90.0,FALSE,"a,l",l,200,TRUE,200,1,0,0.5,2,-1,1,600,400,white,gray,3,2,2,18.18818182,"[20.484999999996944,13.380000000001019,16.674999999999272,15.845000000001164,17.38000000000102,16.82999999999811,34.125,16.165000000000873,16.599999999998545,16.50500000000102,16.080000000001746]",11,
-1,-1,RDK,92,26969,0.0-1.0-91.0,FALSE,"a,l",l,200,TRUE,200,1,0,0.5,2,-1,1,600,400,white,gray,3,2,2,16.71791667,"[17.25500000000102,16.610000000000582,16.739999999997963,16.475000000002183,16.81499999999869,16.575000000000728,16.389999999999418,16.974999999998545,16.325000000000728,17.049999999999272,16.67000000000189,16.735000000000582]",12,
-1,-1,RDK,93,27186,0.0-1.0-92.0,FALSE,"a,l",a,200,TRUE,200,1,180,0.5,2,-1,1,600,400,white,gray,3,2,2,16.72125,"[16.025000000001455,17.654999999998836,16.81999999999971,16.660000000003492,16.534999999999854,16.56999999999971,31.834999999999127,1.8950000000004366,15.969999999997526,16.595000000001164,17.19499999999971,16.900000000001455]",12,
-1,-1,RDK,94,27403,0.0-1.0-93.0,FALSE,"a,l",a,200,TRUE,200,1,180,0.5,2,-1,1,600,400,white,gray,3,2,2,16.66916667,"[17.669999999998254,15.569999999999709,17.525000000001455,15.639999999999418,17.485000000000582,16.864999999997963,15.9900000000016,17.2599999999984,16.735000000000582,16.68000000000029,16.665000000000873,15.944999999999709]",12,
-1,-1,RDK,95,27620,0.0-1.0-94.0,FALSE,"a,l",a,200,TRUE,200,1,180,0.5,2,-1,1,600,400,white,gray,3,2,2,18.26409091,"[17.270000000000437,16.68500000000131,16.479999999999563,16.719999999997526,32.55000000000291,17.099999999998545,17.275000000001455,16.6349999999984,16.68500000000131,16.524999999997817,16.979999999999563]",11,
-1,-1,RDK,96,27833,0.0-1.0-95.0,FALSE,"a,l",a,200,TRUE,200,1,180,0.5,2,-1,1,600,400,white,gray,3,2,2,16.8,"[18.06000000000131,16.290000000000873,17.05999999999767,16.635000000002037,16.610000000000582,16.734999999996944,17.510000000002037,19.989999999997963,11.635000000002037,17.224999999998545,17.049999999999272]",11,
-1,-1,RDK,97,28037,0.0-1.0-96.0,FALSE,"a,l",l,200,TRUE,200,1,0,0.5,2,-1,1,600,400,white,gray,3,2,2,18.19409091,"[16.580000000001746,16.734999999996944,15.915000000000873,17.3650000000016,15.7599999999984,17.375,34.375,15.994999999998981,16.570000000003347,16.764999999999418,16.700000000000728]",11,
-1,-1,RDK,98,28253,0.0-1.0-97.0,FALSE,"a,l",l,200,TRUE,200,1,0,0.5,2,-1,1,600,400,white,gray,3,2,2,18.30136364,"[17.975000000002183,16.719999999997526,16.55500000000029,16.525000000001455,16.654999999998836,16.650000000001455,33.3849999999984,17.110000000000582,16.450000000000728,16.764999999999418,16.524999999997817]",11,
-1,-1,RDK,99,28467,0.0-1.0-98.0,FALSE,"a,l",l,200,TRUE,200,1,0,0.5,2,-1,1,600,400,white,gray,3,2,2,16.70136364,"[17.139999999999418,16.75500000000102,16.24499999999898,17.18500000000131,16.75,16.55500000000029,16.700000000000728,16.875,16.349999999998545,15.659999999999854,17.5]",11,
-1,-1,RDK,100,28673,0.0-1.0-99.0,FALSE,"a,l",l,200,TRUE,200,1,0,0.5,2,-1,1,600,400,white,gray,3,2,2,16.61166667,"[16.085000000002765,16.375,16.70499999999811,16.665000000000873,16.700000000000728,17.590000000000146,15.69999999999709,16.05500000000029,17.30500000000029,16.830000000001746,16.469999999997526,16.860000000000582]",12,
-1,-1,RDK,101,28886,0.0-1.0-100.0,FALSE,"a,l",a,200,TRUE,200,1,180,0.5,2,-1,1,600,400,white,gray,3,2,2,18.25227273,"[16.525000000001455,17.334999999999127,16.649999999997817,16.610000000000582,16.67000000000189,16.534999999999854,34.034999999999854,15.459999999999127,17.465000000000146,16.639999999999418,16.850000000002183]",11,
-1,-1,RDK,102,29102,0.0-1.0-101.0,FALSE,"a,l",l,200,TRUE,200,1,0,0.5,2,-1,1,600,400,white,gray,3,2,2,18.22636364,"[17.229999999999563,16.61999999999898,16.720000000001164,16.075000000000728,17.30999999999767,16.640000000003056,33.77000000000044,16.81499999999869,16.720000000001164,15.215000000000146,17.375]",11,
-1,-1,RDK,103,29320,0.0-1.0-102.0,FALSE,"a,l",a,200,TRUE,200,1,180,0.5,2,-1,1,600,400,white,gray,3,2,2,18.19136364,"[17.145000000000437,16.61999999999898,15.470000000001164,17.524999999997817,16.645000000000437,15.610000000000582,34.76000000000204,16.594999999997526,16.37000000000262,16.68999999999869,16.674999999999272]",11,
-1,-1,RDK,104,29535,0.0-1.0-103.0,FALSE,"a,l",l,200,TRUE,200,1,0,0.5,2,-1,1,600,400,white,gray,3,2,2,18.22681818,"[16.174999999999272,17.625,16.74499999999898,16.340000000000146,16.93000000000029,16.715000000000146,33.36999999999898,16.42500000000291,17.05999999999767,16.510000000002037,16.599999999998545]",11,
-1,-1,RDK,105,29751,0.0-1.0-104.0,FALSE,"a,l",a,200,TRUE,200,1,180,0.5,2,-1,1,600,400,white,gray,3,2,2,16.66708333,"[17.209999999999127,16.695000000003347,20.534999999999854,20.25,9.279999999998836,16.63000000000102,16.590000000000146,16.61999999999898,16.770000000000437,16.62999999999738,16.760000000002037,16.034999999999854]",12,
-1,-1,RDK,106,29970,0.0-1.0-105.0,FALSE,"a,l",l,200,TRUE,200,1,0,0.5,2,-1,1,600,400,white,gray,3,2,2,18.22318182,"[17.13000000000102,16.789999999997235,16.56000000000131,16.595000000001164,16.669999999998254,35.655000000002474,14.5099999999984,16.580000000001746,16.669999999998254,16.645000000000437,16.650000000001455]",11,
-1,-1,RDK,107,30187,0.0-1.0-106.0,FALSE,"a,l",a,200,TRUE,200,1,180,0.5,2,-1,1,600,400,white,gray,3,2,2,18.245,"[19.104999999999563,14.345000000001164,17.020000000000437,16.604999999999563,16.70499999999811,16.7400000000016,33.705000000001746,16.084999999999127,16.82999999999811,16.885000000002037,16.669999999998254]",11,
-1,-1,RDK,108,30403,0.0-1.0-107.0,FALSE,"a,l",l,200,TRUE,200,1,0,0.5,2,-1,1,600,400,white,gray,3,2,2,16.6775,"[17.049999999999272,16.92500000000291,16.514999999999418,16.399999999997817,17.155000000002474,16.80500000000029,17.524999999997817,16.030000000002474,16.25,16.859999999996944,16.760000000002037,15.854999999999563]",12,
-1,-1,RDK,109,30621,0.0-1.0-108.0,FALSE,"a,l",a,200,TRUE,200,1,180,0.5,2,-1,1,600,400,white,gray,3,2,2,18.22636364,"[17.135000000002037,16.764999999999418,16.485000000000582,16.654999999998836,16.580000000001746,16.69999999999709,33.715000000000146,16.465000000000146,16.68500000000131,16.56499999999869,16.7400000000016]",11,
-1,-1,RDK,110,30839,0.0-1.0-109.0,FALSE,"a,l",l,200,TRUE,200,1,0,0.5,2,-1,1,600,400,white,gray,3,2,2,16.73333333,"[17.100000000002183,16.654999999998836,16.830000000001746,16.69999999999709,16.635000000002037,16.93000000000029,16.645000000000437,16.789999999997235,15.405000000002474,17.75,16.614999999997963,16.74500000000262]",12,
-1,-1,RDK,111,31056,0.0-1.0-110.0,FALSE,"a,l",a,200,TRUE,200,1,180,0.5,2,-1,1,600,400,white,gray,3,2,2,16.68333333,"[17.165000000000873,16.57999999999811,16.764999999999418,32.81999999999971,1.9700000000011642,15.885000000002037,16.104999999999563,16.794999999998254,16.525000000001455,16.669999999998254,16.760000000002037,16.159999999999854]",12,
-1,-1,RDK,112,31271,0.0-1.0-111.0,FALSE,"a,l",a,200,TRUE,200,1,180,0.5,2,-1,1,600,400,white,gray,3,2,2,16.69583333,"[16.965000000000146,16.8849999999984,16.67000000000189,17.00499999999738,16.290000000000873,16.61999999999898,20.040000000000873,13.780000000002474,15.929999999996653,16.820000000003347,16.659999999999854,16.68499999999767]",12,
-1,-1,RDK,113,31487,0.0-1.0-112.0,FALSE,"a,l",a,200,TRUE,200,1,180,0.5,2,-1,1,600,400,white,gray,3,2,2,18.28136364,"[16.095000000001164,17.415000000000873,17.044999999998254,16.595000000001164,16.645000000000437,16.639999999999418,33.6349999999984,15.910000000003492,16.974999999998545,17.264999999999418,16.875]",11,
-1,-1,RDK,114,31703,0.0-1.0-113.0,FALSE,"a,l",l,200,TRUE,200,1,0,0.5,2,-1,1,600,400,white,gray,3,2,2,18.15863636,"[16.06499999999869,17.860000000000582,16.3849999999984,15.784999999999854,17.375,16.94499999999971,33.55500000000029,16.465000000000146,16.659999999999854,16.659999999999854,15.9900000000016]",11,
-1,-1,RDK,115,31920,0.0-1.0-114.0,FALSE,"a,l",l,200,TRUE,200,1,0,0.5,2,-1,1,600,400,white,gray,3,2,2,18.22727273,"[17.11999999999898,16.760000000002037,16.44499999999971,16.81499999999869,16.450000000000728,16.639999999999418,33.650000000001455,16.599999999998545,16.63000000000102,16.979999999999563,16.409999999999854]",11,
-1,-1,RDK,116,32134,0.0-1.0-115.0,FALSE,"a,l",l,200,TRUE,200,1,0,0.5,2,-1,1,600,400,white,gray,3,2,2,16.70909091,"[16.110000000000582,17.18999999999869,17.18500000000131,16.594999999997526,16.639999999999418,16.67000000000189,16.649999999997817,25.910000000003492,6.524999999997817,17.264999999999418,17.06000000000131]",11,
-1,-1,RDK,117,32339,0.0-1.0-116.0,FALSE,"a,l",l,200,TRUE,200,1,0,0.5,2,-1,1,600,400,white,gray,3,2,2,18.18045455,"[16.63000000000102,16.715000000000146,16.584999999999127,16.709999999999127,35.56000000000131,14.505000000001019,15.654999999998836,17.604999999999563,16.650000000001455,16.68999999999869,16.68000000000029]",11,
-1,-1,RDK,118,32551,0.0-1.0-117.0,FALSE,"a,l",a,200,TRUE,200,1,180,0.5,2,-1,1,600,400,white,gray,3,2,2,16.78909091,"[17.93999999999869,16.74499999999898,16.5,16.705000000001746,15.799999999999272,17.520000000000437,17.639999999999418,15.670000000001892,16.95499999999811,16.515000000003056,16.689999999995052]",11,
-1,-1,RDK,119,32757,0.0-1.0-118.0,FALSE,"a,l",a,200,TRUE,200,1,180,0.5,2,-1,1,600,400,white,gray,3,2,2,18.17636364,"[16.724999999998545,16.635000000002037,16.70499999999447,16.160000000003492,17.114999999997963,16.630000000004657,33.98500000000058,16.64999999999418,16.42500000000291,15.510000000002037,17.39999999999418]",11,
-1,-1,RDK,120,32971,0.0-1.0-119.0,FALSE,"a,l",l,200,TRUE,200,1,0,0.5,2,-1,1,600,400,white,gray,3,2,2,16.69625,"[17.30999999999767,16.510000000002037,16.94999999999709,16.459999999999127,16.715000000003783,15.985000000000582,17.209999999999127,16.705000000001746,16.540000000000873,16.669999999998254,16.37999999999738,16.919999999998254]",12,
-1,-1,RDK,121,33189,0.0-1.0-120.0,FALSE,"a,l",l,200,TRUE,200,1,0,0.5,2,-1,1,600,400,white,gray,3,2,2,16.71333333,"[19.42500000000291,14.349999999998545,16.830000000001746,16.56500000000233,16.614999999997963,16.470000000001164,16.869999999995343,16.81500000000233,15.82499999999709,17.54500000000553,16.639999999999418,16.610000000000582]",12,
-1,-1,RDK,122,33403,0.0-1.0-121.0,FALSE,"a,l",a,200,TRUE,200,1,180,0.5,2,-1,1,600,400,white,gray,3,2,2,16.68916667,"[17.19499999999971,16.739999999997963,16.610000000000582,17.419999999998254,16.81999999999971,15.889999999999418,16.81500000000233,16.57499999999709,16.790000000000873,16.415000000000873,15.775000000001455,17.224999999998545]",12,
-1,-1,RDK,123,33619,0.0-1.0-122.0,FALSE,"a,l",a,200,TRUE,200,1,180,0.5,2,-1,1,600,400,white,gray,3,2,2,18.20272727,"[17.05500000000029,16.794999999998254,16.485000000000582,16.55500000000029,16.669999999998254,15.650000000001455,36.5199999999968,14.665000000000873,16.665000000000873,16.560000000004948,16.609999999993306]",11,
-1,-1,RDK,124,33838,0.0-1.0-123.0,FALSE,"a,l",l,200,TRUE,200,1,0,0.5,2,-1,1,600,400,white,gray,3,2,2,18.26636364,"[16.30999999999767,17.42500000000291,16.790000000000873,16.654999999998836,16.650000000001455,16.674999999995634,33.720000000001164,16.095000000001164,17.104999999995925,16.75,16.755000000004657]",11,
-1,-1,RDK,125,34054,0.0-1.0-124.0,FALSE,"a,l",l,200,TRUE,200,1,0,0.5,2,-1,1,600,400,white,gray,3,2,2,18.21272727,"[17.17500000000291,16.564999999995052,16.75,15.990000000005239,17.409999999996217,16.62000000000262,33.33999999999651,17.275000000001455,16.05000000000291,16.964999999996508,16.200000000004366]",11,
-1,-1,RDK,126,34272,0.0-1.0-125.0,FALSE,"a,l",l,200,TRUE,200,1,0,0.5,2,-1,1,600,400,white,gray,3,2,2,16.69708333,"[17.224999999998545,16.639999999999418,16.614999999997963,16.700000000004366,16.595000000001164,15.844999999993888,17.060000000004948,17.07999999999447,16.595000000001164,16.635000000002037,16.69999999999709,16.67500000000291]",12,
-1,-1,RDK,127,34486,0.0-1.0-126.0,FALSE,"a,l",l,200,TRUE,200,1,0,0.5,2,-1,1,600,400,white,gray,3,2,2,16.69083333,"[16.040000000000873,17.44499999999971,18.12000000000262,16.029999999998836,16.110000000000582,16.5199999999968,16.68000000000029,16.654999999998836,15.910000000003492,17.415000000000873,16.764999999999418,16.599999999998545]",12,
-1,-1,RDK,128,34702,0.0-1.0-127.0,FALSE,"a,l",a,200,TRUE,200,1,180,0.5,2,-1,1,600,400,white,gray,3,2,2,18.17954545,"[17.18000000000029,16.724999999998545,16.735000000000582,15.889999999999418,17.485000000000582,35.375,14.92500000000291,16.31999999999971,16.689999999995052,16.56500000000233,16.084999999999127]",11,
-1,-1,RDK,129,34922,0.0-1.0-128.0,FALSE,"a,l",l,200,TRUE,200,1,0,0.5,2,-1,1,600,400,white,gray,3,2,2,18.25181818,"[17.169999999998254,16.714999999996508,16.830000000001746,16.42500000000291,16.62999999999738,15.735000000000582,34.87000000000262,16.364999999997963,16.415000000000873,16.790000000000873,16.82499999999709]",11,
-1,-1,RDK,130,35137,0.0-1.0-129.0,FALSE,"a,l",a,200,TRUE,200,1,180,0.5,2,-1,1,600,400,white,gray,3,2,2,16.71208333,"[16.400000000001455,17.31500000000233,16.80500000000029,16.875,16.474999999998545,16.729999999995925,16.55000000000291,16.62000000000262,15.784999999996217,17.474999999998545,16.790000000000873,16.724999999998545]",12,
-1,-1,RDK,131,35355,0.0-1.0-130.0,FALSE,"a,l",a,200,TRUE,200,1,180,0.5,2,-1,1,600,400,white,gray,3,2,2,16.6875,"[17.189999999995052,16.724999999998545,15.67000000000553,16.88499999999476,16.54500000000553,17.52499999999418,31.060000000004948,2.029999999998836,17.364999999997963,16.37000000000262,15.720000000001164,17.165000000000873]",12,
-1,-1,RDK,132,35572,0.0-1.0-131.0,FALSE,"a,l",a,200,TRUE,200,1,180,0.5,2,-1,1,600,400,white,gray,3,2,2,16.7025,"[17.575000000004366,16.244999999995343,16.640000000006694,16.62999999999738,16.635000000002037,15.75,17.13499999999476,17.18000000000029,16.645000000004075,16.639999999999418,16.674999999995634,16.68000000000029]",12,
-1,-1,RDK,133,35789,0.0-1.0-132.0,FALSE,"a,l",l,200,TRUE,200,1,0,0.5,2,-1,1,600,400,white,gray,3,2,2,16.71375,"[16.114999999997963,17.42000000000553,16.94999999999709,16.595000000001164,16.650000000001455,17.334999999999127,16.744999999995343,16.145000000004075,15.915000000000873,17.32499999999709,17.05999999999767,16.310000000004948]",12,
-1,-1,RDK,134,36004,0.0-1.0-133.0,FALSE,"a,l",a,200,TRUE,200,1,180,0.5,2,-1,1,600,400,white,gray,3,2,2,18.15727273,"[16.99500000000262,16.424999999995634,16.97500000000582,15.839999999996508,17.31500000000233,16.82499999999709,35.4800000000032,15.069999999999709,16.604999999995925,16.290000000000873,15.910000000003492]",11,
-1,-1,RDK,135,36220,0.0-1.0-134.0,FALSE,"a,l",l,200,TRUE,200,1,0,0.5,2,-1,1,600,400,white,gray,3,2,2,16.69791667,"[17.414999999993597,16.455000000001746,16.74000000000524,16.639999999999418,16.514999999999418,16.834999999999127,16.439999999995052,16.655000000006112,16.665000000000873,16.664999999993597,16.72500000000582,16.625]",12,
-1,-1,RDK,136,36438,0.0-1.0-135.0,FALSE,"a,l",a,200,TRUE,200,1,180,0.5,2,-1,1,600,400,white,gray,3,2,2,16.73541667,"[19.165000000000873,14.305000000000291,17.05500000000029,16.674999999995634,16.599999999998545,16.710000000006403,30.814999999995052,1.8700000000026193,16.525000000001455,17.5199999999968,17.06500000000233,16.5199999999968]",12,
-1,-1,RDK,137,36655,0.0-1.0-136.0,FALSE,"a,l",a,200,TRUE,200,1,180,0.5,2,-1,1,600,400,white,gray,3,2,2,18.235,"[17.589999999996508,16.705000000001746,16.474999999998545,15.755000000004657,17.439999999995052,16.79500000000553,33.404999999998836,17.099999999998545,16.220000000001164,16.81999999999971,16.279999999998836]",11,
-1,-1,RDK,138,36872,0.0-1.0-137.0,FALSE,"a,l",a,200,TRUE,200,1,180,0.5,2,-1,1,600,400,white,gray,3,2,2,16.69666667,"[17.415000000000873,16.38499999999476,16.585000000006403,16.314999999995052,16.9800000000032,16.665000000000873,16.06999999999971,17.339999999996508,16.639999999999418,16.660000000003492,16.650000000001455,16.654999999998836]",12,
-1,-1,RDK,139,37086,0.0-1.0-138.0,FALSE,"a,l",a,200,TRUE,200,1,180,0.5,2,-1,1,600,400,white,gray,3,2,2,16.73727273,"[16.1449999999968,17.42500000000291,17.010000000002037,16.604999999995925,32.54000000000087,2.0800000000017462,16.05999999999767,16.05999999999767,15.810000000004948,17.334999999999127,17.040000000000873]",11,
-1,-1,RDK,140,37290,0.0-1.0-139.0,FALSE,"a,l",l,200,TRUE,200,1,0,0.5,2,-1,1,600,400,white,gray,3,2,2,18.06272727,"[15.480000000003201,16.665000000000873,16.639999999999418,16.55500000000029,15.639999999999418,17.410000000003492,34.354999999995925,15.959999999999127,16.56999999999971,16.650000000001455,16.764999999999418]",11,
-1,-1,RDK,141,37506,0.0-1.0-140.0,FALSE,"a,l",a,200,TRUE,200,1,180,0.5,2,-1,1,600,400,white,gray,3,2,2,16.79875,"[17.520000000004075,17.13499999999476,16.61500000000524,15.694999999999709,16.919999999998254,17.364999999997963,17.375,15.810000000004948,15.904999999998836,17.924999999995634,16.49500000000262,16.82499999999709]",12,
-1,-1,RDK,142,37722,0.0-1.0-141.0,FALSE,"a,l",a,200,TRUE,200,1,180,0.5,2,-1,1,600,400,white,gray,3,2,2,16.65541667,"[17.42500000000291,15.419999999998254,17.345000000001164,17.1050000000032,16.854999999995925,16.61500000000524,17.654999999998836,16.025000000001455,15.994999999995343,15.75,17.25,16.42500000000291]",12,
-1,-1,RDK,143,37941,0.0-1.0-142.0,FALSE,"a,l",a,200,TRUE,200,1,180,0.5,2,-1,1,600,400,white,gray,3,2,2,16.70875,"[17.169999999998254,16.385000000002037,16.89999999999418,16.705000000001746,15.75,17.334999999999127,17.025000000001455,17.349999999998545,16.360000000000582,16.349999999998545,16.6050000000032,16.56999999999971]",12,
-1,-1,RDK,144,38155,0.0-1.0-143.0,FALSE,"a,l",l,200,TRUE,200,1,0,0.5,2,-1,1,600,400,white,gray,3,2,2,16.75125,"[17.830000000001746,15.970000000001164,18.3550000000032,15.259999999994761,16.889999999999418,16.685000000004948,16.674999999995634,15.950000000004366,17.50999999999476,16.61500000000524,16.62999999999738,16.6449999999968]",12,
-1,-1,RDK,145,38372,0.0-1.0-144.0,FALSE,"a,l",l,200,TRUE,200,1,0,0.5,2,-1,1,600,400,white,gray,3,2,2,16.74125,"[17.17000000000553,16.834999999999127,16.02499999999418,17.24000000000524,16.619999999995343,16.590000000003783,16.139999999999418,17.889999999999418,16.260000000002037,15.430000000000291,17.68000000000029,17.014999999999418]",12,
-1,-1,RDK,146,38590,0.0-1.0-145.0,FALSE,"a,l",l,200,TRUE,200,1,0,0.5,2,-1,1,600,400,white,gray,3,2,2,18.21590909,"[17.19499999999971,16.610000000000582,16.520000000004075,16.69499999999971,15.644999999996799,17.389999999999418,34.71500000000378,15.534999999996217,16.735000000000582,16.654999999998836,16.68000000000029]",11,
-1,-1,RDK,147,38803,0.0-1.0-146.0,FALSE,"a,l",a,200,TRUE,200,1,180,0.5,2,-1,1,600,400,white,gray,3,2,2,16.81590909,"[17.860000000000582,16.869999999995343,16.62000000000262,16.62000000000262,16.68499999999767,16.709999999999127,18,15.184999999997672,17.04500000000553,16.75499999999738,16.625]",11,
-1,-1,RDK,148,39006,0.0-1.0-147.0,FALSE,"a,l",a,200,TRUE,200,1,180,0.5,2,-1,1,600,400,white,gray,3,2,2,16.57458333,"[16.010000000002037,16.55500000000029,16.75,16.05500000000029,17.290000000000873,16.6449999999968,16.49500000000262,16.75,16.775000000001455,16.81999999999971,16.729999999995925,16.020000000004075]",12,
-1,-1,RDK,149,39221,0.0-1.0-148.0,FALSE,"a,l",a,200,TRUE,200,1,180,0.5,2,-1,1,600,400,white,gray,3,2,2,16.68625,"[17.18000000000029,16.349999999998545,16.67500000000291,16.69999999999709,16.56500000000233,15.709999999999127,17.349999999998545,17.075000000004366,16.689999999995052,16.724999999998545,16.56500000000233,16.650000000001455]",12,
-1,-1,RDK,150,39440,0.0-1.0-149.0,FALSE,"a,l",l,200,TRUE,200,1,0,0.5,2,-1,1,600,400,white,gray,3,2,2,18.275,"[19.44000000000233,14.214999999996508,16.94499999999971,16.595000000001164,32.73999999999796,17.395000000004075,16.614999999997963,16.010000000002037,17.599999999998545,16.590000000003783,16.87999999999738]",11,
-1,-1,RDK,151,39656,0.0-1.0-150.0,FALSE,"a,l",a,200,TRUE,200,1,180,0.5,2,-1,1,600,400,white,gray,3,2,2,18.21318182,"[17.130000000004657,16.544999999998254,16.81999999999971,15.904999999998836,17.349999999998545,16.780000000006112,35.924999999995634,14.610000000000582,16.30000000000291,16.799999999995634,16.18000000000029]",11,
-1,-1,RDK,152,39873,0.0-1.0-151.0,FALSE,"a,l",l,200,TRUE,200,1,0,0.5,2,-1,1,600,400,white,gray,3,2,2,16.68791667,"[17.244999999995343,16.455000000001746,16.590000000003783,16.8949999999968,16.529999999998836,15.650000000001455,17.19999999999709,17.1050000000032,16.654999999998836,16.639999999999418,16.660000000003492,16.62999999999738]",12,
-1,-1,RDK,153,40090,0.0-1.0-152.0,FALSE,"a,l",l,200,TRUE,200,1,0,0.5,2,-1,1,600,400,white,gray,3,2,2,16.72458333,"[16.205000000001746,17.534999999996217,16.735000000000582,16.639999999999418,16.69999999999709,16.685000000004948,31.235000000000582,1.819999999999709,16.604999999995925,17.130000000004657,16.720000000001164,16.68499999999767]",12,
-1,-1,RDK,154,40306,0.0-1.0-153.0,FALSE,"a,l",a,200,TRUE,200,1,180,0.5,2,-1,1,600,400,white,gray,3,2,2,18.20818182,"[17.209999999999127,16.43000000000029,16.955000000001746,15.784999999996217,17.505000000004657,16.625,33.68999999999505,16.904999999998836,16.145000000004075,16.790000000000873,16.25]",11,
-1,-1,RDK,155,40526,0.0-1.0-154.0,FALSE,"a,l",a,200,TRUE,200,1,180,0.5,2,-1,1,600,400,white,gray,3,2,2,16.61625,"[17.040000000000873,15.839999999996508,16.900000000001455,17.014999999999418,16.610000000000582,16.68000000000029,16.17500000000291,17.209999999999127,16.62000000000262,16.639999999999418,16.69999999999709,15.965000000003783]",12,
-1,-1,RDK,156,40740,0.0-1.0-155.0,FALSE,"a,l",a,200,TRUE,200,1,180,0.5,2,-1,1,600,400,white,gray,3,2,2,16.73125,"[16.089999999996508,17.6050000000032,16.80500000000029,16.6050000000032,16.3949999999968,16.400000000001455,18.040000000000873,15.924999999995634,15.880000000004657,17.44999999999709,16.864999999997963,16.715000000003783]",12,
-1,-1,RDK,157,40959,0.0-1.0-156.0,FALSE,"a,l",a,200,TRUE,200,1,180,0.5,2,-1,1,600,400,white,gray,3,2,2,18.18227273,"[17.06500000000233,16.69499999999971,16.700000000004366,15.854999999995925,17.400000000001455,16.69000000000233,36.18999999999505,14.474999999998545,16.140000000006694,16.964999999996508,15.830000000001746]",11,
-1,-1,RDK,158,41173,0.0-1.0-157.0,FALSE,"a,l",l,200,TRUE,200,1,0,0.5,2,-1,1,600,400,white,gray,3,2,2,18.21272727,"[16.95499999999447,16.79500000000553,16.25499999999738,16.67500000000291,16.68499999999767,16.67500000000291,34.029999999998836,16.174999999995634,16.645000000004075,16.6449999999968,16.80500000000029]",11,
-1,-1,RDK,159,41389,0.0-1.0-158.0,FALSE,"a,l",a,200,TRUE,200,1,180,0.5,2,-1,1,600,400,white,gray,3,2,2,16.69583333,"[16.110000000000582,17.56999999999971,16.864999999997963,16.589999999996508,16.6050000000032,16.69999999999709,16.60000000000582,16.594999999993888,15.735000000000582,17.345000000001164,16.955000000001746,16.68000000000029]",12,
-1,-1,RDK,160,41607,0.0-1.0-159.0,FALSE,"a,l",a,200,TRUE,200,1,180,0.5,2,-1,1,600,400,white,gray,3,2,2,16.69416667,"[17.140000000006694,16.834999999999127,16.3949999999968,15.985000000000582,17.364999999997963,16.760000000002037,30.974999999998545,1.860000000000582,17.330000000001746,16.6449999999968,15.935000000004948,17.104999999995925]",12,
-1,-1,RDK,161,41822,0.0-1.0-160.0,FALSE,"a,l",l,200,TRUE,200,1,0,0.5,2,-1,1,600,400,white,gray,3,2,2,16.7025,"[17.30500000000029,15.794999999998254,16.32499999999709,17.630000000004657,16.6449999999968,16.705000000001746,16.06999999999971,17.239999999997963,16.69000000000233,16.709999999999127,16.654999999998836,16.660000000003492]",12,
-1,-1,RDK,162,42039,0.0-1.0-161.0,FALSE,"a,l",a,200,TRUE,200,1,180,0.5,2,-1,1,600,400,white,gray,3,2,2,16.71708333,"[16.089999999996508,17.375,17.1050000000032,16.654999999998836,16.584999999999127,16.165000000000873,18.139999999999418,15.830000000001746,15.605000000003201,17.404999999998836,16.534999999996217,17.11500000000524]",12,
-1,-1,RDK,163,42256,0.0-1.0-162.0,FALSE,"a,l",l,200,TRUE,200,1,0,0.5,2,-1,1,600,400,white,gray,3,2,2,18.22090909,"[17.514999999999418,16.674999999995634,16.655000000006112,15.75,17.37999999999738,16.93499999999767,35.85000000000582,14.494999999995343,16.410000000003492,16.69499999999971,16.06999999999971]",11,
-1,-1,RDK,164,42474,0.0-1.0-163.0,FALSE,"a,l",l,200,TRUE,200,1,0,0.5,2,-1,1,600,400,white,gray,3,2,2,18.23454545,"[17.235000000000582,16.549999999995634,16.830000000001746,16.275000000001455,16.614999999997963,16.67500000000291,34.15999999999622,16.099999999998545,16.56500000000233,16.56999999999971,17.005000000004657]",11,
-1,-1,RDK,165,42691,0.0-1.0-164.0,FALSE,"a,l",l,200,TRUE,200,1,0,0.5,2,-1,1,600,400,white,gray,3,2,2,18.24772727,"[17.040000000000873,16.339999999996508,17.06999999999971,16.610000000000582,16.625,16.669999999998254,33.73500000000058,15.910000000003492,16.845000000001164,17.334999999999127,16.544999999998254]",11,
-1,-1,RDK,166,42907,0.0-1.0-165.0,FALSE,"a,l",l,200,TRUE,200,1,0,0.5,2,-1,1,600,400,white,gray,3,2,2,18.16772727,"[23.099999999998545,10.75499999999738,16.68000000000029,15.610000000000582,17.349999999998545,16.630000000004657,34.054999999993015,16.3550000000032,16.67500000000291,16.7699999999968,15.864999999997963]",11,
-1,-1,RDK,167,43124,0.0-1.0-166.0,FALSE,"a,l",l,200,TRUE,200,1,0,0.5,2,-1,1,600,400,white,gray,3,2,2,16.70583333,"[17.43499999999767,16.340000000003783,16.7699999999968,16.6449999999968,16.655000000006112,16.619999999995343,16.1050000000032,17.400000000001455,16.68499999999767,16.56999999999971,16.650000000001455,16.595000000001164]",12,
-1,-1,RDK,168,43341,0.0-1.0-167.0,FALSE,"a,l",a,200,TRUE,200,1,180,0.5,2,-1,1,600,400,white,gray,3,2,2,16.74458333,"[17.139999999999418,16.145000000004075,17.19000000000233,16.674999999995634,16.05000000000291,16.635000000002037,18.014999999999418,16.089999999996508,15.565000000002328,17.775000000001455,16.784999999996217,16.87000000000262]",12,
-1,-1,RDK,169,43557,0.0-1.0-168.0,FALSE,"a,l",l,200,TRUE,200,1,0,0.5,2,-1,1,600,400,white,gray,3,2,2,16.65875,"[17.564999999995052,16.705000000001746,16.68000000000029,15.62999999999738,17.709999999999127,16.81500000000233,18.239999999997963,18.05000000000291,13.389999999999418,16.650000000001455,16.665000000000873,15.805000000000291]",12,
-1,-1,RDK,170,43775,0.0-1.0-169.0,FALSE,"a,l",l,200,TRUE,200,1,0,0.5,2,-1,1,600,400,white,gray,3,2,2,18.25545455,"[17.229999999995925,16.595000000001164,16.74000000000524,16.764999999999418,16.594999999993888,16.68000000000029,34.140000000006694,16.034999999996217,16.75,16.724999999998545,16.55500000000029]",11,
-1,-1,RDK,171,43989,0.0-1.0-170.0,FALSE,"a,l",l,200,TRUE,200,1,0,0.5,2,-1,1,600,400,white,gray,3,2,2,16.68958333,"[17.220000000001164,15.974999999998545,17.37999999999738,16.55000000000291,16.735000000000582,16.709999999999127,15.564999999995052,17.4800000000032,16.67500000000291,16.19999999999709,17.154999999998836,16.630000000004657]",12,
-1,-1,RDK,172,44207,0.0-1.0-171.0,FALSE,"a,l",l,200,TRUE,200,1,0,0.5,2,-1,1,600,400,white,gray,3,2,2,16.66,"[17.1050000000032,16.80999999999767,16.535000000003492,15.714999999996508,17.264999999999418,17.025000000001455,30.87000000000262,1.8699999999953434,17.915000000000873,16.130000000004657,16.714999999996508,15.964999999996508]",12,
-1,-1,RDK,173,44424,0.0-1.0-172.0,FALSE,"a,l",a,200,TRUE,200,1,180,0.5,2,-1,1,600,400,white,gray,3,2,2,16.70083333,"[17.314999999995052,17.580000000001746,15.605000000003201,16.539999999993597,16.705000000001746,16.650000000001455,15.900000000001455,17.37999999999738,16.7300000000032,16.735000000000582,16.610000000000582,16.659999999996217]",12,
-1,-1,RDK,174,44641,0.0-1.0-173.0,FALSE,"a,l",l,200,TRUE,200,1,0,0.5,2,-1,1,600,400,white,gray,3,2,2,16.72291667,"[17.20499999999447,16.020000000004075,17.364999999997963,16.614999999997963,16.60000000000582,16.38499999999476,17.49500000000262,16.239999999997963,16.770000000004075,16.205000000001746,17.214999999996508,16.55999999999767]",12,
-1,-1,RDK,175,44860,0.0-1.0-174.0,FALSE,"a,l",l,200,TRUE,200,1,0,0.5,2,-1,1,600,400,white,gray,3,2,2,18.15727273,"[17.12999999999738,16.659999999996217,16.665000000000873,15.605000000003201,17.224999999998545,17.235000000000582,36.154999999998836,14.230000000003201,16.339999999996508,16.919999999998254,15.565000000002328]",11,
-1,-1,RDK,176,45075,0.0-1.0-175.0,FALSE,"a,l",a,200,TRUE,200,1,180,0.5,2,-1,1,600,400,white,gray,3,2,2,18.28045455,"[17.385000000002037,16.654999999998836,16.68499999999767,16.69999999999709,16.640000000006694,16.864999999997963,35.15999999999622,14.990000000005239,16.30999999999767,16.669999999998254,17.025000000001455]",11,
-1,-1,RDK,177,45291,0.0-1.0-176.0,FALSE,"a,l",l,200,TRUE,200,1,0,0.5,2,-1,1,600,400,white,gray,3,2,2,18.24863636,"[17.095000000001164,16.299999999995634,17.044999999998254,16.705000000001746,16.709999999999127,16.655000000006112,33.529999999998836,16.909999999996217,15.764999999999418,17.285000000003492,16.735000000000582]",11,
-1,-1,RDK,178,45510,0.0-1.0-177.0,FALSE,"a,l",a,200,TRUE,200,1,180,0.5,2,-1,1,600,400,white,gray,3,2,2,18.16409091,"[17.239999999997963,16.830000000001746,16.364999999997963,16.669999999998254,16.150000000001455,17.200000000004366,33.43499999999767,17.014999999999418,16.275000000001455,16.709999999999127,15.915000000000873]",11,
-1,-1,RDK,179,45725,0.0-1.0-178.0,FALSE,"a,l",a,200,TRUE,200,1,180,0.5,2,-1,1,600,400,white,gray,3,2,2,16.72916667,"[17.724999999998545,16.279999999998836,16.739999999997963,16.660000000003492,16.604999999995925,16.67000000000553,15.759999999994761,17.395000000004075,16.970000000001164,16.584999999999127,16.6449999999968,16.715000000003783]",12,
-1,-1,RDK,180,45941,0.0-1.0-179.0,FALSE,"a,l",l,200,TRUE,200,1,0,0.5,2,-1,1,600,400,white,gray,3,2,2,16.73666667,"[20.435000000004948,12.689999999995052,17.360000000000582,16.834999999999127,16.54500000000553,16.014999999999418,17.964999999996508,16.154999999998836,16.630000000004657,16.389999999999418,17.534999999996217,16.285000000003492]",12,
-1,-1,RDK,181,46157,0.0-1.0-180.0,FALSE,"a,l",l,200,TRUE,200,1,0,0.5,2,-1,1,600,400,white,gray,3,2,2,18.18272727,"[16.86500000000524,16.57499999999709,16.764999999999418,16.610000000000582,15.970000000001164,17.189999999995052,36.26000000000204,13.790000000000873,16.625,16.68499999999767,16.67500000000291]",11,
-1,-1,RDK,182,46374,0.0-1.0-181.0,FALSE,"a,l",a,200,TRUE,200,1,180,0.5,2,-1,1,600,400,white,gray,3,2,2,16.76291667,"[17.6449999999968,16.739999999997963,16.060000000004948,17.139999999999418,16.669999999998254,16.6449999999968,17.650000000001455,15.87999999999738,16.72500000000582,16.57999999999447,16.935000000004948,16.485000000000582]",12,
-1,-1,RDK,183,46590,0.0-1.0-182.0,FALSE,"a,l",l,200,TRUE,200,1,0,0.5,2,-1,1,600,400,white,gray,3,2,2,16.69666667,"[17.19499999999971,16.085000000006403,17.154999999998836,16.14999999999418,17.450000000004366,16.549999999995634,16.570000000006985,16.614999999997963,16.689999999995052,15.875,17.510000000002037,16.514999999999418]",12,
-1,-1,RDK,184,46810,0.0-1.0-183.0,FALSE,"a,l",a,200,TRUE,200,1,180,0.5,2,-1,1,600,400,white,gray,3,2,2,16.62416667,"[17.1050000000032,16.840000000003783,16.484999999993306,16.685000000004948,16.034999999996217,17.30000000000291,31.31999999999971,1.9649999999965075,16.764999999999418,16.67000000000553,16.63499999999476,15.685000000004948]",12,
-1,-1,RDK,185,47025,0.0-1.0-184.0,FALSE,"a,l",l,200,TRUE,200,1,0,0.5,2,-1,1,600,400,white,gray,3,2,2,16.75125,"[17.660000000003492,16.719999999993888,20.450000000004366,20.25,9.25499999999738,16.595000000001164,15.694999999999709,17.279999999998836,17.1050000000032,16.659999999996217,16.650000000001455,16.69499999999971]",12,
-1,-1,RDK,186,47240,0.0-1.0-185.0,FALSE,"a,l",a,200,TRUE,200,1,180,0.5,2,-1,1,600,400,white,gray,3,2,2,18.23545455,"[17.209999999999127,15.889999999999418,17.279999999998836,16.87000000000262,16.64999999999418,35.65500000000611,14.319999999999709,16.669999999998254,15.849999999998545,17.455000000001746,16.739999999997963]",11,
-1,-1,RDK,187,47458,0.0-1.0-186.0,FALSE,"a,l",a,200,TRUE,200,1,180,0.5,2,-1,1,600,400,white,gray,3,2,2,18.23681818,"[17.089999999996508,16.685000000004948,16.689999999995052,16.660000000003492,15.944999999999709,17.44000000000233,33.98500000000058,16.044999999998254,16.7699999999968,16.56500000000233,16.7300000000032]",11,
-1,-1,RDK,188,47676,0.0-1.0-187.0,FALSE,"a,l",l,200,TRUE,200,1,0,0.5,2,-1,1,600,400,white,gray,3,2,2,18.28090909,"[17.82999999999447,16.580000000001746,16.485000000000582,16.705000000001746,16.62999999999738,16.735000000000582,33.520000000004075,17.18499999999767,15.19999999999709,17.69499999999971,16.525000000001455]",11,
-1,-1,RDK,189,47891,0.0-1.0-188.0,FALSE,"a,l",l,200,TRUE,200,1,0,0.5,2,-1,1,600,400,white,gray,3,2,2,16.69916667,"[17.234999999993306,15.610000000000582,17.4800000000032,16.909999999996217,16.630000000004657,16.544999999998254,16.794999999998254,16.505000000004657,16.6449999999968,15.819999999999709,17.450000000004366,16.764999999999418]",12,
-1,-1,RDK,190,48107,0.0-1.0-189.0,FALSE,"a,l",l,200,TRUE,200,1,0,0.5,2,-1,1,600,400,white,gray,3,2,2,16.70458333,"[17.084999999999127,16.790000000000873,16.55000000000291,16.68499999999767,15.819999999999709,17.544999999998254,16.735000000000582,16.340000000003783,16.919999999998254,16.669999999998254,16.610000000000582,16.705000000001746]",12,
-1,-1,RDK,191,48326,0.0-1.0-190.0,FALSE,"a,l",a,200,TRUE,200,1,180,0.5,2,-1,1,600,400,white,gray,3,2,2,16.77041667,"[17.654999999998836,16.8949999999968,16.54500000000553,16.099999999998545,16.57499999999709,17.965000000003783,16.064999999995052,16.2300000000032,17.224999999998545,16.660000000003492,16.56999999999971,16.75999999999476]",12,
-1,-1,RDK,192,48540,0.0-1.0-191.0,FALSE,"a,l",a,200,TRUE,200,1,180,0.5,2,-1,1,600,400,white,gray,3,2,2,16.73272727,"[17.37999999999738,15.639999999999418,17.31999999999971,17.06500000000233,16.764999999999418,16.625,19.595000000001164,14.159999999996217,16.125,15.785000000003492,17.599999999998545]",11,
-1,-1,RDK,193,48742,0.0-1.0-192.0,FALSE,"a,l",l,200,TRUE,200,1,0,0.5,2,-1,1,600,400,white,gray,3,2,2,18.10090909,"[15.744999999995343,16.264999999999418,17.04500000000553,16.63499999999476,16.599999999998545,15.830000000001746,34.79000000000087,16.215000000003783,16.70499999999447,16.595000000001164,16.685000000004948]",11,
-1,-1,RDK,194,48960,0.0-1.0-193.0,FALSE,"a,l",l,200,TRUE,200,1,0,0.5,2,-1,1,600,400,white,gray,3,2,2,18.23863636,"[16.760000000002037,17.400000000001455,16.364999999997963,16.57499999999709,16.69499999999971,16.6050000000032,33.76000000000204,16.104999999995925,16.99000000000524,16.88499999999476,16.485000000000582]",11,
-1,-1,RDK,195,49176,0.0-1.0-194.0,FALSE,"a,l",a,200,TRUE,200,1,180,0.5,2,-1,1,600,400,white,gray,3,2,2,18.23045455,"[22.959999999999127,11.065000000002328,15.604999999995925,17.17000000000553,17.174999999995634,16.18000000000029,34.13500000000204,16.385000000002037,16.599999999998545,15.904999999998836,17.3550000000032]",11,
-1,-1,RDK,196,49393,0.0-1.0-195.0,FALSE,"a,l",a,200,TRUE,200,1,180,0.5,2,-1,1,600,400,white,gray,3,2,2,16.70416667,"[17.3949999999968,16.099999999998545,16.985000000000582,16.630000000004657,16.619999999995343,15.815000000002328,17.44499999999971,16.834999999999127,16.68000000000029,16.595000000001164,16.67500000000291,16.674999999995634]",12,
-1,-1,RDK,197,49609,0.0-1.0-196.0,FALSE,"a,l",a,200,TRUE,200,1,180,0.5,2,-1,1,600,400,white,gray,3,2,2,16.73791667,"[16.395000000004075,17.599999999998545,16.525000000001455,16.62000000000262,32.51499999999942,2.194999999999709,15.809999999997672,16.339999999996508,16.06500000000233,17.49500000000262,16.464999999996508,16.830000000001746]",12,
-1,-1,RDK,198,49825,0.0-1.0-197.0,FALSE,"a,l",l,200,TRUE,200,1,0,0.5,2,-1,1,600,400,white,gray,3,2,2,18.21318182,"[17.234999999993306,16.720000000001164,15.480000000003201,17.540000000000873,17.125,16.349999999998545,37.33999999999651,13.22500000000582,16.235000000000582,15.784999999996217,17.30999999999767]",11,
-1,-1,RDK,199,50044,0.0-1.0-198.0,FALSE,"a,l",l,200,TRUE,200,1,0,0.5,2,-1,1,600,400,white,gray,3,2,2,18.24909091,"[17.209999999999127,16.889999999999418,16.330000000001746,16.55000000000291,16.709999999999127,15.735000000000582,34.99499999999534,16.145000000004075,16.470000000001164,16.764999999999418,16.939999999995052]",11,
-1,-1,RDK,200,50265,0.0-1.0-199.0,FALSE,"a,l",a,200,TRUE,200,1,180,0.5,2,-1,1,600,400,white,gray,3,2,2,18.23590909,"[16.6050000000032,17.239999999997963,16.845000000001164,16.549999999995634,16.60000000000582,16.534999999996217,34.05000000000291,15.470000000001164,17.414999999993597,16.705000000001746,16.580000000001746]",11,