"rt","key_press","trial_type","trial_index","time_elapsed","internal_node_id","correct","choices","correct_choice","trial_duration","response_ends_trial","number_of_dots","number_of_sets","coherent_direction","coherence","dot_radius","dot_life","move_distance","aperture_width","aperture_height","dot_color","background_color","RDK_type","aperture_type","reinsert_type","frame_rate","frame_rate_array","number_of_frames"
"5158","13","text","0","5159","0.0-0.0","","","","","","","","","","","","","","","","","","","","","",""
"-1","-1","RDK","1","6387","0.0-1.0-0.0","false","a,l","a","200","true","200","1","180","0.5","2","-1","1","600","400","white","gray","3","2","2","16.691666666666606","[17.5,16.399999999999636,16.399999999999636,16.599999999999454,16.800000000000182,16.600000000000364,16.600000000000364,16.699999999999818,16.699999999999818,16.699999999999818,16.600000000000364,16.699999999999818]","12"
"-1","-1","RDK","2","6603","0.0-1.0-1.0","false","a,l","l","200","true","200","1","0","0.5","2","-1","1","600","400","white","gray","3","2","2","18.209090909090925","[17.400000000000546,33.39999999999873,15.400000000000546,17.5,16.700000000000728,16.599999999999454,16.699999999999818,16.700000000000728,16.699999999999818,16.69999999999891,16.50000000000091]","11"
"-1","-1","RDK","3","6821","0.0-1.0-2.0","false","a,l","a","200","true","200","1","180","0.5","2","-1","1","600","400","white","gray","3","2","2","16.69166666666668","[18.300000000000182,15.199999999999818,26.600000000000364,6.199999999999818,17,17.799999999999272,15.100000000000364,17.400000000000546,16.69999999999891,16.700000000000728,16.600000000000364,16.699999999999818]","12"
"-1","-1","RDK","4","7037","0.0-1.0-3.0","false","a,l","a","200","true","200","1","180","0.5","2","-1","1","600","400","white","gray","3","2","2","16.658333333333378","[17.100000000000364,16.200000000000728,16.699999999999818,16.599999999999454,16.700000000000728,31.799999999999272,3.2000000000007276,22.800000000000182,8.199999999998909,16.800000000000182,17.300000000000182,16.5]","12"
"-1","-1","RDK","5","7252","0.0-1.0-4.0","false","a,l","l","200","true","200","1","0","0.5","2","-1","1","600","400","white","gray","3","2","2","18.41999999999998","[27.400000000000546,28.299999999999272,11.800000000000182,16.699999999999818,16.700000000000728,16.599999999999454,16.699999999999818,16.700000000000728,16.600000000000364,16.69999999999891]","10"
"-1","-1","RDK","6","7457","0.0-1.0-5.0","false","a,l","a","200","true","200","1","180","0.5","2","-1","1","600","400","white","gray","3","2","2","16.650000000000016","[17.50000000000091,15.599999999999454,16.599999999999454,16.700000000000728,23.400000000000546,9.799999999999272,16.799999999999272,16.700000000000728,16.699999999999818,16.600000000000364,16.699999999999818,16.699999999999818]","12"
"-1","-1","RDK","7","7668","0.0-1.0-6.0","false","a,l","a","200","true","200","1","180","0.5","2","-1","1","600","400","white","gray","3","2","2","16.74545454545453","[21.300000000000182,25.399999999999636,3.600000000000364,17.100000000000364,16.800000000000182,15.599999999999454,17.699999999999818,15.900000000000546,17.399999999998727,16.800000000000182,16.600000000000364]","11"
"-1","-1","RDK","8","7871","0.0-1.0-7.0","false","a,l","l","200","true","200","1","0","0.5","2","-1","1","600","400","white","gray","3","2","2","16.64166666666665","[20.49999999999909,27.50000000000091,1.5,16.299999999999272,17.199999999999818,16.699999999999818,16.600000000000364,16.800000000000182,15.5,17.799999999999272,16.700000000000728,16.600000000000364]","12"
"-1","-1","RDK","9","8086","0.0-1.0-8.0","false","a,l","l","200","true","200","1","0","0.5","2","-1","1","600","400","white","gray","3","2","2","16.700000000000045","[20,13.5,16.800000000000182,16.699999999999818,16.700000000000728,16.799999999999272,16.49999999999909,16.700000000000728,16.600000000000364,16.799999999999272,16.600000000000364,16.700000000000728]","12"
"-1","-1","RDK","10","8305","0.0-1.0-9.0","false","a,l","a","200","true","200","1","180","0.5","2","-1","1","600","400","white","gray","3","2","2","16.700000000000045","[18.00000000000091,15.5,24.700000000000728,7.799999999999272,17.5,16.600000000000364,16.799999999999272,16.700000000000728,16.69999999999891,16.399999999999636,16.899999999999636,16.80000000000109]","12"
"-1","-1","RDK","11","8521","0.0-1.0-10.0","false","a,l","a","200","true","200","1","180","0.5","2","-1","1","600","400","white","gray","3","2","2","18.218181818181787","[17.19999999999891,16.5,16.5,16.80000000000109,35.19999999999891,14.700000000000728,16.799999999999272,16.700000000000728,16.69999999999891,16.600000000000364,16.700000000000728]","11"
"-1","-1","RDK","12","9017","0.0-1.0-11.0","false","a,l","a","200","true","200","1","180","0.5","2","-1","1","600","400","white","gray","3","2","2","53.43333333333349","[21.00000000000182,26.19999999999891,2.5,17.00000000000182,16.799999999999272,16.49999999999818,15.800000000001091,17.69999999999891,347.40000000000146]","9"
"-1","-1","RDK","13","9219","0.0-1.0-12.0","false","a,l","a","200","true","200","1","180","0.5","2","-1","1","600","400","white","gray","3","2","2","16.745454545454447","[17.69999999999891,16.400000000001455,16.599999999998545,16.80000000000109,26.399999999999636,6.700000000000728,16.700000000000728,16.69999999999891,16.80000000000109,16.599999999998545,16.799999999999272]","11"
"-1","-1","RDK","14","9422","0.0-1.0-13.0","false","a,l","a","200","true","200","1","180","0.5","2","-1","1","600","400","white","gray","3","2","2","16.591666666666544","[16,16.19999999999891,16.799999999999272,16.700000000000728,16.700000000000728,16.69999999999891,16.600000000000364,23.899999999999636,8.600000000000364,17,17.100000000000364,16.799999999999272]","12"
"-1","-1","RDK","15","9638","0.0-1.0-14.0","false","a,l","a","200","true","200","1","180","0.5","2","-1","1","600","400","white","gray","3","2","2","18.227272727272727","[17.400000000001455,16.19999999999891,37.100000000000364,12.899999999999636,16.80000000000109,16.600000000000364,16.69999999999891,16.69999999999891,16.600000000000364,16.400000000001455,17.099999999998545]","11"
"-1","-1","RDK","16","9853","0.0-1.0-15.0","false","a,l","a","200","true","200","1","180","0.5","2","-1","1","600","400","white","gray","3","2","2","16.78181818181838","[18.50000000000182,15.100000000000364,17.600000000000364,16.599999999998545,15.799999999999272,22.200000000000728,11.599999999998545,17.100000000002183,16.69999999999891,16.700000000000728,16.700000000000728]","11"
"-1","-1","RDK","17","10057","0.0-1.0-16.0","false","a,l","l","200","true","200","1","0","0.5","2","-1","1","600","400","white","gray","3","2","2","19.95","[16.899999999999636,49.80000000000109,16.19999999999891,16.600000000000364,16.600000000000364,16.69999999999891,16.5,16.700000000000728,16.799999999999272,16.700000000000728]","10"
"-1","-1","RDK","18","10272","0.0-1.0-17.0","false","a,l","a","200","true","200","1","180","0.5","2","-1","1","600","400","white","gray","3","2","2","20.029999999999927","[17.399999999999636,16.200000000002547,16.69999999999709,59.30000000000109,7.200000000000728,16.700000000000728,16.69999999999891,16.80000000000109,16.69999999999709,16.600000000000364]","10"
"-1","-1","RDK","19","10486","0.0-1.0-18.0","false","a,l","a","200","true","200","1","180","0.5","2","-1","1","600","400","white","gray","3","2","2","16.681818181818183","[31,2.5,17.400000000001455,16.799999999999272,16.49999999999818,16.700000000000728,16.799999999999272,16.50000000000182,16.799999999999272,16.5,16]","11"
"-1","-1","RDK","20","10689","0.0-1.0-19.0","false","a,l","l","200","true","200","1","0","0.5","2","-1","1","600","400","white","gray","3","2","2","16.649999999999938","[16.69999999999891,16.399999999999636,16.700000000000728,26.5,6.700000000000728,16.19999999999891,17.200000000000728,16.599999999998545,16.80000000000291,16.69999999999709,16.700000000000728,16.600000000000364]","12"
"-1","-1","RDK","21","10906","0.0-1.0-20.0","false","a,l","l","200","true","200","1","0","0.5","2","-1","1","600","400","white","gray","3","2","2","18.218181818181787","[17.99999999999818,15.600000000000364,16.700000000000728,16.700000000000728,16.69999999999709,35.900000000003274,13.499999999998181,17.30000000000109,16.69999999999891,15.699999999998909,17.600000000002183]","11"
"-1","-1","RDK","22","11122","0.0-1.0-21.0","false","a,l","l","200","true","200","1","0","0.5","2","-1","1","600","400","white","gray","3","2","2","18.209090909090843","[23.69999999999891,38.600000000000364,4.700000000000728,16.600000000000364,16.69999999999891,17.299999999999272,16,16.700000000000728,16.600000000000364,16.700000000000728,16.69999999999891]","11"
"-1","-1","RDK","23","11339","0.0-1.0-22.0","false","a,l","l","200","true","200","1","0","0.5","2","-1","1","600","400","white","gray","3","2","2","16.69999999999997","[17.399999999999636,16.200000000000728,16.69999999999891,16.600000000000364,23.200000000000728,9.200000000000728,17.69999999999891,16.700000000000728,16.49999999999818,16.80000000000109,16.700000000000728,16.69999999999891]","12"
"-1","-1","RDK","24","11553","0.0-1.0-23.0","false","a,l","l","200","true","200","1","0","0.5","2","-1","1","600","400","white","gray","3","2","2","18.469999999999892","[18.30000000000109,16.299999999999272,16.69999999999891,16.600000000000364,16.700000000000728,36,13.899999999999636,16.600000000000364,16.799999999999272,16.799999999999272]","10"
"-1","-1","RDK","25","11754","0.0-1.0-24.0","false","a,l","l","200","true","200","1","0","0.5","2","-1","1","600","400","white","gray","3","2","2","16.649999999999938","[16.69999999999891,16.399999999999636,16.600000000000364,25.200000000000728,8.200000000000728,16.69999999999891,16.700000000000728,16.700000000000728,15.599999999998545,17.799999999999272,16.600000000000364,16.600000000000364]","12"
"-1","-1","RDK","26","11973","0.0-1.0-25.0","false","a,l","a","200","true","200","1","180","0.5","2","-1","1","600","400","white","gray","3","2","2","18.21818181818195","[18.099999999998545,15.400000000001455,16.80000000000109,16.599999999998545,16.799999999999272,36.60000000000218,13.199999999998909,16.80000000000109,16.69999999999891,16.700000000000728,16.700000000000728]","11"
"-1","-1","RDK","27","12190","0.0-1.0-26.0","false","a,l","a","200","true","200","1","180","0.5","2","-1","1","600","400","white","gray","3","2","2","20.020000000000074","[19.099999999998545,55.50000000000182,8.599999999998545,17.100000000002183,16.69999999999891,16.599999999998545,16.80000000000109,16.600000000000364,16.600000000000364,16.600000000000364]","10"
"-1","-1","RDK","28","12406","0.0-1.0-27.0","false","a,l","a","200","true","200","1","180","0.5","2","-1","1","600","400","white","gray","3","2","2","18.209090909090843","[17.299999999999272,16.200000000000728,16.69999999999891,16.700000000000728,32.5,16.399999999999636,17.80000000000109,16.600000000000364,16.80000000000109,16.599999999998545,16.69999999999891]","11"
"-1","-1","RDK","29","12620","0.0-1.0-28.0","false","a,l","l","200","true","200","1","0","0.5","2","-1","1","600","400","white","gray","3","2","2","16.790909090909324","[21.900000000001455,15.399999999999636,13.900000000001455,16.799999999999272,16.599999999998545,16.700000000000728,16.69999999999891,16.700000000000728,16.600000000000364,16.700000000000728,16.700000000000728]","11"
"-1","-1","RDK","30","12824","0.0-1.0-29.0","false","a,l","l","200","true","200","1","0","0.5","2","-1","1","600","400","white","gray","3","2","2","16.649999999999938","[17.30000000000109,15.799999999997453,16.700000000000728,26.100000000000364,6.5,17.399999999999636,16.700000000000728,16.700000000000728,16.69999999999709,16.600000000000364,16.700000000000728,16.600000000000364]","12"
"-1","-1","RDK","31","13039","0.0-1.0-30.0","false","a,l","l","200","true","200","1","0","0.5","2","-1","1","600","400","white","gray","3","2","2","16.68333333333324","[17.19999999999891,16.30000000000109,16.700000000000728,16.700000000000728,16.599999999998545,16.69999999999891,22.600000000000364,10.600000000000364,16.80000000000109,16.600000000000364,16.799999999999272,16.599999999998545]","12"
"-1","-1","RDK","32","13255","0.0-1.0-31.0","false","a,l","l","200","true","200","1","0","0.5","2","-1","1","600","400","white","gray","3","2","2","18.218181818181787","[18,38.69999999999891,9.600000000000364,17.30000000000109,16,17.299999999999272,16.799999999999272,16.600000000000364,16.700000000000728,16.69999999999891,16.700000000000728]","11"
"-1","-1","RDK","33","13473","0.0-1.0-32.0","false","a,l","a","200","true","200","1","180","0.5","2","-1","1","600","400","white","gray","3","2","2","18.200000000000067","[17.299999999999272,15.300000000001091,17.69999999999891,44.80000000000109,4.5,17.30000000000109,16.69999999999891,16.700000000000728,16,17.299999999999272,16.600000000000364]","11"
"-1","-1","RDK","34","13689","0.0-1.0-33.0","false","a,l","a","200","true","200","1","180","0.5","2","-1","1","600","400","white","gray","3","2","2","18.209090909090843","[17.299999999999272,16.100000000000364,16.799999999999272,16.700000000000728,16.700000000000728,37.19999999999891,12.600000000000364,16.799999999999272,16.700000000000728,16.700000000000728,16.69999999999891]","11"
"-1","-1","RDK","35","13904","0.0-1.0-34.0","false","a,l","a","200","true","200","1","180","0.5","2","-1","1","600","400","white","gray","3","2","2","18.439999999999962","[19.19999999999891,36.600000000000364,11.899999999999636,16.700000000000728,16.700000000000728,16.700000000000728,16.599999999998545,16.600000000000364,16.799999999999272,16.600000000000364]","10"
"-1","-1","RDK","36","14107","0.0-1.0-35.0","false","a,l","a","200","true","200","1","180","0.5","2","-1","1","600","400","white","gray","3","2","2","16.416666666666515","[14.799999999999272,16.399999999999636,16.200000000000728,17.19999999999891,16.100000000000364,32.100000000000364,1.6999999999989086,16.600000000000364,16.80000000000109,16.700000000000728,16.69999999999891,15.699999999998909]","12"
"-1","-1","RDK","37","14321","0.0-1.0-36.0","false","a,l","a","200","true","200","1","180","0.5","2","-1","1","600","400","white","gray","3","2","2","18.218181818181787","[16.5,36.19999999999891,14.300000000001091,16.700000000000728,16.599999999998545,16.80000000000109,16.599999999998545,16.600000000000364,16.700000000000728,16,17.399999999999636]","11"
"-1","-1","RDK","38","14540","0.0-1.0-37.0","false","a,l","l","200","true","200","1","0","0.5","2","-1","1","600","400","white","gray","3","2","2","16.69999999999997","[17.200000000000728,16.5,30.299999999999272,2.8000000000010914,16.600000000000364,17.5,16,16.69999999999891,16.700000000000728,16.69999999999891,16.69999999999891,16.700000000000728]","12"
"-1","-1","RDK","39","14758","0.0-1.0-38.0","false","a,l","l","200","true","200","1","0","0.5","2","-1","1","600","400","white","gray","3","2","2","16.708333333333332","[18.50000000000182,15.399999999999636,16.69999999999891,16.5,16.69999999999891,16.80000000000109,18,15.200000000000728,16.69999999999891,16.600000000000364,16.700000000000728,16.69999999999891]","12"
"-1","-1","RDK","40","14973","0.0-1.0-39.0","false","a,l","a","200","true","200","1","180","0.5","2","-1","1","600","400","white","gray","3","2","2","16.69166666666676","[17,15.799999999999272,28.200000000000728,5.000000000001819,17.19999999999891,17,16.80000000000109,16.599999999998545,16.69999999999891,16.700000000000728,15.700000000000728,17.600000000000364]","12"
"-1","-1","RDK","41","15190","0.0-1.0-40.0","false","a,l","l","200","true","200","1","0","0.5","2","-1","1","600","400","white","gray","3","2","2","16.691666666666606","[16.49999999999818,16.899999999999636,16.900000000001455,16.600000000000364,16.600000000000364,20.599999999998545,12.900000000001455,16.600000000000364,16.600000000000364,16.69999999999891,16.69999999999891,16.700000000000728]","12"
"-1","-1","RDK","42","15404","0.0-1.0-41.0","false","a,l","a","200","true","200","1","180","0.5","2","-1","1","600","400","white","gray","3","2","2","18.459999999999855","[26.099999999998545,26.100000000000364,15.700000000000728,16.69999999999891,16.69999999999891,16.600000000000364,16.700000000000728,16.400000000001455,16.99999999999818,16.600000000000364]","10"
"-1","-1","RDK","43","15607","0.0-1.0-42.0","false","a,l","l","200","true","200","1","0","0.5","2","-1","1","600","400","white","gray","3","2","2","16.658333333333303","[16.80000000000109,16.5,16.599999999998545,27.100000000000364,5.100000000000364,17.299999999999272,17.100000000000364,16.600000000000364,16.69999999999891,15.800000000001091,17.30000000000109,16.99999999999818]","12"
"-1","-1","RDK","44","15824","0.0-1.0-43.0","false","a,l","l","200","true","200","1","0","0.5","2","-1","1","600","400","white","gray","3","2","2","16.691666666666606","[17.99999999999818,15.600000000002183,16.600000000000364,16.799999999999272,16.599999999998545,16.100000000002183,28.899999999997817,4.399999999999636,16.200000000000728,17.700000000000728,16.700000000000728,16.69999999999891]","12"
"-1","-1","RDK","45","16051","0.0-1.0-44.0","false","a,l","l","200","true","200","1","0","0.5","2","-1","1","600","400","white","gray","3","2","2","16.67500000000003","[17.100000000000364,16.299999999999272,30.30000000000109,2.099999999998545,16.700000000000728,17.599999999998545,16.80000000000109,16.69999999999891,16.600000000000364,16.200000000002547,26.299999999999272,7.399999999999636]","12"
"-1","-1","RDK","46","16255","0.0-1.0-45.0","false","a,l","a","200","true","200","1","180","0.5","2","-1","1","600","400","white","gray","3","2","2","16.708333333333183","[16.399999999997817,17.50000000000182,16.399999999999636,16.80000000000109,15.899999999997817,29.49999999999818,4.5,16.700000000000728,15.600000000002183,17.69999999999891,16.799999999999272,16.700000000000728]","12"
"-1","-1","RDK","47","16473","0.0-1.0-46.0","false","a,l","l","200","true","200","1","0","0.5","2","-1","1","600","400","white","gray","3","2","2","16.69166666666676","[18.00000000000182,28.299999999999272,3.2999999999992724,17.400000000001455,16.599999999998545,16.700000000000728,16.700000000000728,16.700000000000728,16.599999999994907,16.500000000003638,16.899999999997817,16.600000000002183]","12"
"-1","-1","RDK","48","16691","0.0-1.0-47.0","false","a,l","l","200","true","200","1","0","0.5","2","-1","1","600","400","white","gray","3","2","2","20.020000000000074","[19.600000000002183,14.299999999999272,16.400000000001455,49.59999999999491,17.400000000005093,16.69999999999709,16.700000000000728,16.600000000002183,16.700000000000728,16.19999999999709]","10"
"-1","-1","RDK","49","16905","0.0-1.0-48.0","false","a,l","a","200","true","200","1","180","0.5","2","-1","1","600","400","white","gray","3","2","2","16.708333333333332","[16.30000000000291,17.299999999995634,16.80000000000291,16.599999999998545,17.099999999998545,30.30000000000291,2.400000000001455,16.799999999999272,16.799999999999272,16.700000000000728,16.700000000000728,16.69999999999709]","12"
"-1","-1","RDK","50","17124","0.0-1.0-49.0","false","a,l","a","200","true","200","1","180","0.5","2","-1","1","600","400","white","gray","3","2","2","18.21818181818195","[17.200000000004366,36.5,13.19999999999709,16.700000000000728,16.299999999999272,17.099999999998545,16.700000000000728,16.600000000002183,16.69999999999709,16.700000000000728,16.700000000000728]","11"
"-1","-1","RDK","51","17341","0.0-1.0-50.0","false","a,l","l","200","true","200","1","0","0.5","2","-1","1","600","400","white","gray","3","2","2","16.691666666666606","[17.399999999997817,16.100000000002183,16.700000000000728,16.599999999994907,15.900000000005093,17.499999999996362,16.700000000000728,16.700000000000728,16.700000000000728,16.69999999999709,16.700000000000728,16.600000000002183]","12"
"-1","-1","RDK","52","17555","0.0-1.0-51.0","false","a,l","a","200","true","200","1","180","0.5","2","-1","1","600","400","white","gray","3","2","2","16.75454545454572","[17.900000000001455,16.400000000001455,16.599999999998545,16.700000000000728,16.700000000000728,16,28.400000000001455,4.69999999999709,17.400000000001455,16.799999999999272,16.700000000000728]","11"
"-1","-1","RDK","53","17757","0.0-1.0-52.0","false","a,l","a","200","true","200","1","180","0.5","2","-1","1","600","400","white","gray","3","2","2","18.172727272727403","[17.700000000000728,15.400000000001455,41.099999999998545,7.799999999999272,17.700000000000728,16.80000000000291,16.700000000000728,16.69999999999709,16.700000000000728,15.899999999997817,17.400000000001455]","11"
"-1","-1","RDK","54","17975","0.0-1.0-53.0","false","a,l","l","200","true","200","1","0","0.5","2","-1","1","600","400","white","gray","3","2","2","22.244444444444525","[17.30000000000291,15.69999999999709,17.200000000000728,16.69999999999709,66.60000000000218,16.700000000000728,16.700000000000728,16.700000000000728,16.599999999998545]","9"
"-1","-1","RDK","55","18191","0.0-1.0-54.0","false","a,l","l","200","true","200","1","0","0.5","2","-1","1","600","400","white","gray","3","2","2","18.209090909091174","[26.500000000003638,28,12.299999999999272,16.700000000000728,16.69999999999709,16.600000000002183,16.700000000000728,16.700000000000728,16.69999999999709,16.80000000000291,16.599999999998545]","11"
"-1","-1","RDK","56","18406","0.0-1.0-55.0","false","a,l","a","200","true","200","1","180","0.5","2","-1","1","600","400","white","gray","3","2","2","16.783333333333456","[18.30000000000291,16.399999999997817,16.700000000000728,16.600000000002183,16.599999999994907,16.700000000000728,16.799999999999272,16.5,16.700000000000728,16.799999999999272,16.700000000000728,16.600000000002183]","12"
"-1","-1","RDK","57","18625","0.0-1.0-56.0","false","a,l","l","200","true","200","1","0","0.5","2","-1","1","600","400","white","gray","3","2","2","16.699999999999818","[17.599999999998545,15.299999999999272,17.400000000001455,16.700000000000728,16.700000000000728,16.599999999998545,30.19999999999709,3.099999999998545,16.600000000002183,16.799999999999272,16.700000000000728,16.700000000000728]","12"
"-1","-1","RDK","58","18842","0.0-1.0-57.0","false","a,l","l","200","true","200","1","0","0.5","2","-1","1","600","400","white","gray","3","2","2","20.01999999999971","[18.700000000000728,51.29999999999927,13.400000000001455,16.799999999999272,16.600000000002183,16.69999999999709,16.700000000000728,16.599999999998545,16.80000000000291,16.599999999994907]","10"
"-1","-1","RDK","59","19056","0.0-1.0-58.0","false","a,l","a","200","true","200","1","180","0.5","2","-1","1","600","400","white","gray","3","2","2","16.763636363636497","[18.099999999998545,16.200000000000728,16.69999999999709,16.600000000002183,16.400000000001455,17.099999999998545,21.200000000000728,12,16.700000000000728,16.599999999998545,16.80000000000291]","11"
"-1","-1","RDK","60","19258","0.0-1.0-59.0","false","a,l","a","200","true","200","1","180","0.5","2","-1","1","600","400","white","gray","3","2","2","18.136363636363637","[16.30000000000291,38.69999999999709,10.100000000002183,17.69999999999709,16.700000000000728,16,17.200000000000728,16.799999999999272,16.700000000000728,16.700000000000728,16.599999999998545]","11"
"-1","-1","RDK","61","19473","0.0-1.0-60.0","false","a,l","a","200","true","200","1","180","0.5","2","-1","1","600","400","white","gray","3","2","2","16.70833333333303","[17.299999999999272,16.299999999999272,16.799999999999272,16.599999999998545,16.400000000001455,17.099999999998545,16.5,16.799999999999272,16.400000000001455,16.900000000001455,16.69999999999709,16.700000000000728]","12"
"-1","-1","RDK","62","19689","0.0-1.0-61.0","false","a,l","l","200","true","200","1","0","0.5","2","-1","1","600","400","white","gray","3","2","2","16.774999999999938","[19,15.400000000001455,16.899999999997817,16.600000000002183,16.700000000000728,16.599999999998545,28.499999999996362,4.400000000001455,17,16.700000000000728,15.700000000000728,17.799999999999272]","12"
"-1","-1","RDK","63","19907","0.0-1.0-62.0","false","a,l","l","200","true","200","1","0","0.5","2","-1","1","600","400","white","gray","3","2","2","19.900000000000365","[23.600000000002183,37.099999999998545,6,16.600000000002183,16.599999999998545,16.900000000001455,16.599999999998545,16.700000000000728,16.599999999998545,32.30000000000291]","10"
"-1","-1","RDK","64","20126","0.0-1.0-63.0","false","a,l","l","200","true","200","1","0","0.5","2","-1","1","600","400","white","gray","3","2","2","16.683333333333394","[17.30000000000291,16.099999999994907,16.80000000000291,16.599999999998545,21.5,11.600000000002183,16.899999999997817,16.799999999999272,16.500000000003638,16.39999999999418,16.200000000004366,17.5]","12"
"-1","-1","RDK","65","20342","0.0-1.0-64.0","false","a,l","l","200","true","200","1","0","0.5","2","-1","1","600","400","white","gray","3","2","2","18.200000000000397","[17.100000000002183,16.399999999997817,16.80000000000291,16.599999999998545,16.600000000002183,37.20000000000073,12.799999999999272,16.799999999999272,16.700000000000728,16.700000000000728,16.5]","11"
"-1","-1","RDK","66","20559","0.0-1.0-65.0","false","a,l","l","200","true","200","1","0","0.5","2","-1","1","600","400","white","gray","3","2","2","18.21818181818195","[18.400000000001455,35.70000000000073,12,17.599999999998545,16.69999999999709,16.700000000000728,16.700000000000728,16.600000000002183,16.599999999998545,16.700000000000728,16.700000000000728]","11"
"-1","-1","RDK","67","20775","0.0-1.0-66.0","false","a,l","a","200","true","200","1","180","0.5","2","-1","1","600","400","white","gray","3","2","2","16.699999999999818","[17.399999999997817,15.399999999997817,17.500000000003638,16.599999999998545,22.69999999999709,10.600000000002183,16.899999999997817,16.5,16.80000000000291,16.69999999999709,16.600000000002183,16.700000000000728]","12"
"-1","-1","RDK","68","20992","0.0-1.0-67.0","false","a,l","l","200","true","200","1","0","0.5","2","-1","1","600","400","white","gray","3","2","2","16.691666666666304","[17.299999999995634,16.200000000004366,16.799999999999272,16.700000000000728,16.599999999998545,16.700000000000728,30.19999999999709,2.5,17.200000000000728,16.700000000000728,16.799999999999272,16.599999999998545]","12"
"-1","-1","RDK","69","21209","0.0-1.0-68.0","false","a,l","l","200","true","200","1","0","0.5","2","-1","1","600","400","white","gray","3","2","2","18.199999999999736","[25.5,37.19999999999709,4.5,16.400000000001455,16.600000000002183,16.69999999999709,16.600000000002183,16.799999999999272,16.600000000002183,16.700000000000728,16.599999999994907]","11"
"-1","-1","RDK","70","21424","0.0-1.0-69.0","false","a,l","l","200","true","200","1","0","0.5","2","-1","1","600","400","white","gray","3","2","2","16.71666666666685","[17.400000000001455,16.299999999999272,16.5,16.799999999999272,23.299999999999272,9.200000000000728,17.599999999998545,16.600000000002183,16.700000000000728,16.700000000000728,16.599999999998545,16.900000000001455]","12"
"-1","-1","RDK","71","21641","0.0-1.0-70.0","false","a,l","l","200","true","200","1","0","0.5","2","-1","1","600","400","white","gray","3","2","2","18.21818181818195","[17.799999999999272,15.799999999999272,16.700000000000728,16.700000000000728,16.599999999998545,37.00000000000364,12.899999999997817,16.799999999999272,16.600000000002183,16.299999999999272,17.200000000000728]","11"
"-1","-1","RDK","72","21859","0.0-1.0-71.0","false","a,l","a","200","true","200","1","180","0.5","2","-1","1","600","400","white","gray","3","2","2","22.24444444444412","[17.399999999997817,66.19999999999709,16.600000000002183,16.700000000000728,16.100000000002183,17.299999999995634,16.700000000000728,16.5,16.700000000000728]","9"
"-1","-1","RDK","73","22073","0.0-1.0-72.0","false","a,l","a","200","true","200","1","180","0.5","2","-1","1","600","400","white","gray","3","2","2","16.74545454545461","[17.799999999999272,16.400000000001455,16.600000000002183,16.599999999998545,25.799999999999272,7.500000000003638,16.599999999994907,16.700000000000728,16.599999999998545,15.900000000005093,17.69999999999709]","11"
"-1","-1","RDK","74","22275","0.0-1.0-73.0","false","a,l","a","200","true","200","1","180","0.5","2","-1","1","600","400","white","gray","3","2","2","18.145454545454413","[22.200000000000728,36.10000000000218,7.999999999996362,16.600000000002183,16.599999999998545,16.80000000000291,16.69999999999709,16.700000000000728,16.399999999997817,16.799999999999272,16.700000000000728]","11"
"-1","-1","RDK","75","22495","0.0-1.0-74.0","false","a,l","a","200","true","200","1","180","0.5","2","-1","1","600","400","white","gray","3","2","2","16.649999999999938","[17.80000000000291,15.799999999999272,15.600000000002183,17.69999999999709,20,12.80000000000291,17.299999999999272,16.599999999998545,16.700000000000728,16.700000000000728,16.700000000000728,16.099999999994907]","12"
"-1","-1","RDK","76","22710","0.0-1.0-75.0","false","a,l","l","200","true","200","1","0","0.5","2","-1","1","600","400","white","gray","3","2","2","18.21818181818195","[17.400000000001455,16.099999999998545,16.799999999999272,16.700000000000728,16.700000000000728,35.099999999998545,14.80000000000291,16.799999999999272,16.700000000000728,16.599999999998545,16.700000000000728]","11"
"-1","-1","RDK","77","22923","0.0-1.0-76.0","false","a,l","l","200","true","200","1","0","0.5","2","-1","1","600","400","white","gray","3","2","2","18.469999999999708","[18.299999999999272,37.19999999999709,11.600000000002183,17.499999999996362,16.700000000000728,16.600000000002183,16.700000000000728,16.69999999999709,16.700000000000728,16.700000000000728]","10"
"-1","-1","RDK","78","23126","0.0-1.0-77.0","false","a,l","a","200","true","200","1","180","0.5","2","-1","1","600","400","white","gray","3","2","2","16.641666666666424","[16.700000000000728,16.299999999999272,16.700000000000728,16.700000000000728,16.599999999998545,15.799999999999272,17.600000000002183,16.599999999994907,16.80000000000291,16.599999999998545,16.700000000000728,16.599999999998545]","12"
"-1","-1","RDK","79","23343","0.0-1.0-78.0","false","a,l","l","200","true","200","1","0","0.5","2","-1","1","600","400","white","gray","3","2","2","18.21818181818162","[16.900000000001455,36.20000000000073,13.899999999997817,16.700000000000728,16.700000000000728,16.700000000000728,16.700000000000728,16.599999999998545,16.700000000000728,16.700000000000728,16.599999999994907]","11"
"-1","-1","RDK","80","23557","0.0-1.0-79.0","false","a,l","a","200","true","200","1","180","0.5","2","-1","1","600","400","white","gray","3","2","2","16.763636363636497","[19.600000000002183,14.69999999999709,16.599999999998545,23.700000000000728,8.900000000001455,17.399999999997817,16.700000000000728,16.799999999999272,16.700000000000728,16.5,16.80000000000291]","11"
"-1","-1","RDK","81","23760","0.0-1.0-80.0","false","a,l","a","200","true","200","1","180","0.5","2","-1","1","600","400","white","gray","3","2","2","18.03636363636377","[15.400000000001455,16.299999999995634,16.700000000000728,16.80000000000291,16.69999999999709,16.600000000002183,16.599999999998545,20.200000000000728,37.30000000000291,8.799999999999272,17]","11"
"-1","-1","RDK","82","23977","0.0-1.0-81.0","false","a,l","a","200","true","200","1","180","0.5","2","-1","1","600","400","white","gray","3","2","2","18.200000000000067","[17.5,16.099999999998545,33,16.799999999999272,16.900000000001455,16.69999999999709,16.30000000000291,17.099999999998545,16.000000000003638,17.19999999999709,16.600000000002183]","11"
"-1","-1","RDK","83","24192","0.0-1.0-82.0","false","a,l","l","200","true","200","1","0","0.5","2","-1","1","600","400","white","gray","3","2","2","16.699999999999818","[17.399999999997817,16.299999999999272,16.700000000000728,16.600000000002183,16.700000000000728,15.69999999999709,30.700000000000728,2.7000000000007276,17.099999999998545,16.400000000001455,17.499999999996362,16.600000000002183]","12"
"-1","-1","RDK","84","24409","0.0-1.0-83.0","false","a,l","l","200","true","200","1","0","0.5","2","-1","1","600","400","white","gray","3","2","2","18.209090909090843","[24.69999999999709,37.50000000000364,4.599999999998545,16.799999999999272,16.700000000000728,16.700000000000728,16.700000000000728,16.599999999998545,16.599999999998545,16.700000000000728,16.700000000000728]","11"
"-1","-1","RDK","85","24627","0.0-1.0-84.0","false","a,l","l","200","true","200","1","0","0.5","2","-1","1","600","400","white","gray","3","2","2","16.683333333333394","[17.30000000000291,16.099999999994907,16.80000000000291,16.69999999999709,23.900000000001455,9.400000000001455,16.700000000000728,15.899999999997817,17.5,16.700000000000728,17.099999999998545,16.100000000002183]","12"
"-1","-1","RDK","86","24844","0.0-1.0-85.0","false","a,l","l","200","true","200","1","0","0.5","2","-1","1","600","400","white","gray","3","2","2","18.200000000000067","[17.30000000000291,16.19999999999709,16.5,16.899999999997817,16.600000000002183,35.39999999999782,14.500000000003638,16.799999999999272,16.599999999998545,16.80000000000291,16.599999999998545]","11"
"-1","-1","RDK","87","25059","0.0-1.0-86.0","false","a,l","l","200","true","200","1","0","0.5","2","-1","1","600","400","white","gray","3","2","2","18.21818181818162","[17.399999999997817,38.89999999999782,10.700000000004366,16.69999999999709,16.599999999998545,16.700000000000728,16.700000000000728,16.700000000000728,16.599999999998545,16.700000000000728,16.700000000000728]","11"
"-1","-1","RDK","88","25276","0.0-1.0-87.0","false","a,l","a","200","true","200","1","180","0.5","2","-1","1","600","400","white","gray","3","2","2","16.691666666666606","[17.099999999998545,16.5,16.700000000000728,16.600000000002183,16.700000000000728,16.599999999998545,16.69999999999709,16.599999999998545,16.600000000002183,17,16.5,16.700000000000728]","12"
"-1","-1","RDK","89","25494","0.0-1.0-88.0","false","a,l","l","200","true","200","1","0","0.5","2","-1","1","600","400","white","gray","3","2","2","16.699999999999818","[18.099999999998545,15.5,16.700000000000728,16.700000000000728,16.599999999998545,16.700000000000728,30.099999999998545,2.7999999999992724,17.100000000002183,16.69999999999709,15.80000000000291,17.599999999998545]","12"
"-1","-1","RDK","90","25711","0.0-1.0-89.0","false","a,l","a","200","true","200","1","180","0.5","2","-1","1","600","400","white","gray","3","2","2","19.920000000000073","[25.400000000001455,37.099999999998545,4.5,16.30000000000291,16.599999999998545,16.799999999999272,16.200000000000728,17.100000000002183,16.700000000000728,32.49999999999636]","10"
"-1","-1","RDK","91","25925","0.0-1.0-90.0","false","a,l","a","200","true","200","1","180","0.5","2","-1","1","600","400","white","gray","3","2","2","18.227272727272727","[17.400000000001455,15.899999999997817,17,16.600000000002183,34.89999999999782,15.200000000000728,16.700000000000728,16.799999999999272,16.5,16.80000000000291,16.69999999999709]","11"
"-1","-1","RDK","92","26144","0.0-1.0-91.0","false","a,l","l","200","true","200","1","0","0.5","2","-1","1","600","400","white","gray","3","2","2","18.209090909090843","[17.099999999998545,16.400000000001455,16.099999999998545,17.299999999999272,16.5,16.799999999999272,33.00000000000364,16.69999999999709,17,16.600000000002183,16.799999999999272]","11"
"-1","-1","RDK","93","26360","0.0-1.0-92.0","false","a,l","a","200","true","200","1","180","0.5","2","-1","1","600","400","white","gray","3","2","2","16.691666666666606","[18.099999999998545,15.400000000001455,31.19999999999709,2.3000000000029104,16.299999999995634,16.900000000001455,16.700000000000728,16.700000000000728,16.69999999999709,16.600000000002183,16.700000000000728,16.700000000000728]","12"
"-1","-1","RDK","94","26577","0.0-1.0-93.0","false","a,l","l","200","true","200","1","0","0.5","2","-1","1","600","400","white","gray","3","2","2","18.209090909090843","[17.299999999999272,16.200000000004366,16.799999999999272,16.599999999998545,34.20000000000073,15.799999999999272,16.69999999999709,16.700000000000728,16.700000000000728,16.700000000000728,16.599999999998545]","11"
"-1","-1","RDK","95","26794","0.0-1.0-94.0","false","a,l","l","200","true","200","1","0","0.5","2","-1","1","600","400","white","gray","3","2","2","16.699999999999818","[16.200000000000728,27.30000000000291,6.899999999997817,16.599999999998545,16.700000000000728,16.600000000002183,16.69999999999709,16.700000000000728,16.700000000000728,16.499999999996362,16.80000000000291,16.69999999999709]","12"
"-1","-1","RDK","96","27011","0.0-1.0-95.0","false","a,l","l","200","true","200","1","0","0.5","2","-1","1","600","400","white","gray","3","2","2","18.209090909091174","[17.400000000001455,16.099999999998545,16.700000000000728,32.60000000000218,17.399999999997817,16.799999999999272,15.700000000000728,17.600000000002183,16.700000000000728,15.69999999999709,17.600000000002183]","11"
"-1","-1","RDK","97","27227","0.0-1.0-96.0","false","a,l","l","200","true","200","1","0","0.5","2","-1","1","600","400","white","gray","3","2","2","18.21818181818195","[17.400000000001455,15.599999999998545,17.299999999999272,16.700000000000728,37.60000000000218,12.299999999999272,16.799999999999272,16.599999999998545,16.700000000000728,16.700000000000728,16.700000000000728]","11"
"-1","-1","RDK","98","27444","0.0-1.0-97.0","false","a,l","l","200","true","200","1","0","0.5","2","-1","1","600","400","white","gray","3","2","2","16.691666666666606","[17.599999999998545,24.5,7,17.900000000001455,16.499999999996362,16.799999999999272,16.600000000002183,16.700000000000728,16.599999999998545,16.400000000001455,17.099999999998545,16.600000000002183]","12"
"-1","-1","RDK","99","27659","0.0-1.0-98.0","false","a,l","a","200","true","200","1","180","0.5","2","-1","1","600","400","white","gray","3","2","2","18.172727272727403","[17.099999999998545,16.600000000002183,16.599999999998545,45.70000000000073,3.7999999999992724,17.19999999999709,16.100000000002183,17.200000000000728,16.799999999999272,16.700000000000728,16.100000000002183]","11"
"-1","-1","RDK","100","27878","0.0-1.0-99.0","false","a,l","l","200","true","200","1","0","0.5","2","-1","1","600","400","white","gray","3","2","2","18.21818181818162","[18.799999999999272,14.900000000001455,16.599999999998545,16.600000000002183,16.799999999999272,36.400000000001455,13.599999999998545,16.600000000002183,16.69999999999345,16.700000000000728,16.700000000000728]","11"
"-1","-1","RDK","101","28092","0.0-1.0-100.0","false","a,l","a","200","true","200","1","180","0.5","2","-1","1","600","400","white","gray","3","2","2","18.21818181818195","[25.100000000002183,27.5,14.299999999995634,16.400000000001455,17.099999999998545,16.600000000002183,16.599999999998545,16.80000000000291,16.69999999999709,16.600000000002183,16.700000000000728]","11"
"-1","-1","RDK","102","28314","0.0-1.0-101.0","false","a,l","a","200","true","200","1","180","0.5","2","-1","1","600","400","white","gray","3","2","2","16.633333333333212","[17.799999999999272,15.799999999999272,29.30000000000291,3.5,17.099999999998545,19.5,13,17.700000000000728,16.599999999998545,16.700000000000728,16.5,16.099999999998545]","12"
"-1","-1","RDK","103","28526","0.0-1.0-102.0","false","a,l","l","200","true","200","1","0","0.5","2","-1","1","600","400","white","gray","3","2","2","16.708333333333332","[17.400000000001455,16.19999999999709,16.80000000000291,16.599999999998545,16.900000000001455,31.299999999999272,2.500000000003638,15.999999999996362,16.799999999999272,16.600000000002183,16.700000000000728,16.69999999999709]","12"
"-1","-1","RDK","104","28744","0.0-1.0-103.0","false","a,l","l","200","true","200","1","0","0.5","2","-1","1","600","400","white","gray","3","2","2","18.21818181818162","[17.200000000000728,38.099999999998545,11.099999999998545,17.200000000004366,16.69999999999709,16.700000000000728,16.599999999998545,16.700000000000728,16.700000000000728,16.700000000000728,16.69999999999709]","11"
"-1","-1","RDK","105","28961","0.0-1.0-104.0","false","a,l","l","200","true","200","1","0","0.5","2","-1","1","600","400","white","gray","3","2","2","16.699999999999818","[17.299999999999272,16.400000000001455,16.599999999998545,16.600000000002183,16.5,17,16.599999999998545,16.700000000000728,16.700000000000728,16.599999999994907,16.700000000000728,16.700000000000728]","12"
"-1","-1","RDK","106","29178","0.0-1.0-105.0","false","a,l","a","200","true","200","1","180","0.5","2","-1","1","600","400","white","gray","3","2","2","16.691666666666606","[17.299999999999272,16.100000000002183,16.899999999997817,16.700000000000728,16.599999999998545,16.600000000002183,29.299999999999272,3.900000000001455,16.700000000000728,16.700000000000728,16.799999999999272,16.69999999999709]","12"
"-1","-1","RDK","107","29395","0.0-1.0-106.0","false","a,l","a","200","true","200","1","180","0.5","2","-1","1","600","400","white","gray","3","2","2","18.209090909090843","[25,36.79999999999927,4.900000000001455,16.899999999997817,16.600000000002183,16.69999999999709,16.700000000000728,16.200000000000728,17.100000000002183,16.700000000000728,16.69999999999709]","11"
"-1","-1","RDK","108","29619","0.0-1.0-107.0","false","a,l","l","200","true","200","1","0","0.5","2","-1","1","600","400","white","gray","3","2","2","16.691666666666606","[17.400000000001455,16.099999999998545,16.799999999999272,16,17.200000000000728,15.900000000001455,30.099999999998545,6.099999999998545,13.700000000000728,16.599999999998545,17.700000000000728,16.700000000000728]","12"
"-1","-1","RDK","109","29826","0.0-1.0-108.0","false","a,l","l","200","true","200","1","0","0.5","2","-1","1","600","400","white","gray","3","2","2","16.763636363636166","[17.899999999997817,16.400000000001455,16.700000000000728,16.700000000000728,16.69999999999709,16.700000000000728,20,12.900000000001455,17.099999999998545,16.599999999998545,16.700000000000728]","11"
"-1","-1","RDK","110","30028","0.0-1.0-109.0","false","a,l","l","200","true","200","1","0","0.5","2","-1","1","600","400","white","gray","3","2","2","18.163636363636297","[16.599999999998545,16.000000000003638,17,16.799999999999272,36.89999999999782,13.000000000003638,16.799999999999272,16.599999999998545,16.69999999999709,16.100000000002183,17.299999999999272]","11"
"-1","-1","RDK","111","30242","0.0-1.0-110.0","false","a,l","a","200","true","200","1","180","0.5","2","-1","1","600","400","white","gray","3","2","2","18.45","[24.19999999999709,27.200000000000728,15.700000000004366,17.299999999999272,16.69999999999709,16.700000000000728,16.600000000002183,15.799999999999272,17.599999999998545,16.700000000000728]","10"
"-1","-1","RDK","112","30447","0.0-1.0-111.0","false","a,l","l","200","true","200","1","0","0.5","2","-1","1","600","400","white","gray","3","2","2","16.649999999999938","[16.599999999998545,16.399999999997817,16.30000000000291,17.099999999998545,24.099999999998545,8.80000000000291,16.799999999999272,17,16.700000000000728,16.700000000000728,16.69999999999709,16.600000000002183]","12"
"-1","-1","RDK","113","30660","0.0-1.0-112.0","false","a,l","a","200","true","200","1","180","0.5","2","-1","1","600","400","white","gray","3","2","2","16.763636363636497","[18.200000000000728,16.099999999998545,16.799999999999272,16.599999999998545,16.700000000000728,16.700000000000728,30.400000000001455,2.5,16.5,17.200000000000728,16.700000000000728]","11"
"-1","-1","RDK","114","30860","0.0-1.0-113.0","false","a,l","a","200","true","200","1","180","0.5","2","-1","1","600","400","white","gray","3","2","2","16.608333333333274","[16.299999999999272,16.400000000001455,16.600000000002183,28.599999999994907,4.700000000004366,16.69999999999709,16.799999999999272,16.600000000002183,16.69999999999709,16.600000000002183,16.700000000000728,16.599999999998545]","12"
"-1","-1","RDK","115","31079","0.0-1.0-114.0","false","a,l","a","200","true","200","1","180","0.5","2","-1","1","600","400","white","gray","3","2","2","18.209090909090513","[17.299999999995634,16.200000000004366,16.799999999999272,16.700000000000728,16.599999999998545,35.5,14.399999999997817,16.799999999999272,15.600000000002183,17.799999999999272,16.599999999998545]","11"
"-1","-1","RDK","116","31295","0.0-1.0-115.0","false","a,l","l","200","true","200","1","0","0.5","2","-1","1","600","400","white","gray","3","2","2","18.21818181818195","[16.600000000002183,36.89999999999782,13.400000000001455,16.700000000000728,16.700000000000728,16.69999999999709,16.700000000000728,16.700000000000728,16.700000000000728,16.599999999998545,16.700000000000728]","11"
"-1","-1","RDK","117","31511","0.0-1.0-116.0","false","a,l","a","200","true","200","1","180","0.5","2","-1","1","600","400","white","gray","3","2","2","16.691666666666908","[18.299999999999272,15.299999999999272,16.600000000002183,23.600000000002183,9.69999999999709,16.80000000000291,16.69999999999709,16.600000000002183,16.599999999998545,16.80000000000291,16.69999999999709,16.600000000002183]","12"
"-1","-1","RDK","118","31729","0.0-1.0-117.0","false","a,l","l","200","true","200","1","0","0.5","2","-1","1","600","400","white","gray","3","2","2","16.625","[17.099999999998545,16.099999999998545,16.900000000001455,16.599999999998545,15.600000000002183,17.69999999999709,18.100000000002183,15.099999999998545,30.700000000000728,2.7000000000007276,15.69999999999709,17.200000000004366]","12"
"-1","-1","RDK","119","31943","0.0-1.0-118.0","false","a,l","a","200","true","200","1","180","0.5","2","-1","1","600","400","white","gray","3","2","2","18.118181818181753","[27.200000000000728,26.799999999995634,12.100000000002183,17.5,16.599999999998545,16.700000000000728,16.700000000000728,16.599999999998545,16.799999999999272,16.600000000002183,15.700000000000728]","11"
"-1","-1","RDK","120","32162","0.0-1.0-119.0","false","a,l","l","200","true","200","1","0","0.5","2","-1","1","600","400","white","gray","3","2","2","16.691666666667214","[17.400000000005093,16.19999999999709,16.700000000000728,16.600000000002183,16.599999999998545,24.599999999998545,8.900000000005093,16.5,16.799999999995634,16.60000000000582,16.39999999999418,17.000000000003638]","12"
"-1","-1","RDK","121","32377","0.0-1.0-120.0","false","a,l","l","200","true","200","1","0","0.5","2","-1","1","600","400","white","gray","3","2","2","18.21818181818195","[29.700000000004366,35.69999999999709,2.2999999999992724,15.900000000001455,16.799999999995634,16.700000000000728,16.60000000000582,16.799999999995634,16.600000000002183,16.799999999999272,16.5]","11"
"-1","-1","RDK","122","32593","0.0-1.0-121.0","false","a,l","a","200","true","200","1","180","0.5","2","-1","1","600","400","white","gray","3","2","2","16.699999999999516","[17.299999999999272,16.39999999999418,16.700000000000728,16.30000000000291,27,10.19999999999709,12.700000000004366,17.19999999999345,16.60000000000582,16.69999999999709,16.700000000000728,16.599999999998545]","12"
"-1","-1","RDK","123","32812","0.0-1.0-122.0","false","a,l","a","200","true","200","1","180","0.5","2","-1","1","600","400","white","gray","3","2","2","16.691666666666606","[17.299999999999272,16.299999999999272,16.799999999995634,16.5,16.80000000000655,16.5,26.89999999999418,6.299999999995634,20.10000000000582,13.5,16.599999999998545,16.700000000004366]","12"
"-1","-1","RDK","124","33029","0.0-1.0-123.0","false","a,l","a","200","true","200","1","180","0.5","2","-1","1","600","400","white","gray","3","2","2","16.70000000000012","[17.5,16.099999999998545,16.700000000004366,22.400000000001455,10.599999999998545,17,16.700000000004366,16.69999999999709,16.700000000004366,16.69999999999709,16.599999999998545,16.69999999999709]","12"
"-1","-1","RDK","125","33246","0.0-1.0-124.0","false","a,l","a","200","true","200","1","180","0.5","2","-1","1","600","400","white","gray","3","2","2","16.70000000000012","[17.400000000001455,15.900000000001455,16.900000000001455,16.59999999999127,15.900000000001455,29.700000000004366,4.5,16.599999999998545,16.799999999995634,16.700000000004366,15.700000000004366,17.69999999999709]","12"
"-1","-1","RDK","126","33460","0.0-1.0-125.0","false","a,l","a","200","true","200","1","180","0.5","2","-1","1","600","400","white","gray","3","2","2","16.70833333333394","[17.900000000001455,25.700000000004366,6.999999999992724,16.400000000001455,16.60000000000582,16.799999999995634,16.69999999999709,16.700000000004366,16.599999999998545,16.700000000004366,16.69999999999709,16.700000000004366]","12"
"-1","-1","RDK","127","33680","0.0-1.0-126.0","false","a,l","a","200","true","200","1","180","0.5","2","-1","1","600","400","white","gray","3","2","2","20.020000000000437","[17.099999999998545,16.5,16.400000000001455,54.900000000001455,12,16.69999999999709,16.700000000004366,16.19999999999709,17.099999999998545,16.60000000000582]","10"
"-1","-1","RDK","128","33895","0.0-1.0-127.0","false","a,l","l","200","true","200","1","0","0.5","2","-1","1","600","400","white","gray","3","2","2","16.691666666666908","[17.10000000000582,16.400000000001455,16.69999999999709,16.700000000004366,16.599999999998545,15.799999999995634,25.099999999998545,8.60000000000582,20.89999999999418,12.900000000001455,16.700000000004366,16.799999999995634]","12"
"-1","-1","RDK","129","34112","0.0-1.0-128.0","false","a,l","l","200","true","200","1","0","0.5","2","-1","1","600","400","white","gray","3","2","2","16.691666666666908","[17.19999999999709,16.30000000000291,16.60000000000582,31.799999999995634,3.999999999992724,13.900000000001455,17.10000000000582,16.700000000004366,16.69999999999709,16.599999999998545,16.69999999999709,16.700000000004366]","12"
"-1","-1","RDK","130","34330","0.0-1.0-129.0","false","a,l","l","200","true","200","1","0","0.5","2","-1","1","600","400","white","gray","3","2","2","16.666666666666668","[17.700000000004366,15.400000000001455,17.099999999998545,16.69999999999709,16.700000000004366,25.69999999999709,7.599999999998545,16.69999999999709,16.700000000004366,16.69999999999709,16.60000000000582,16.39999999999418]","12"
"-1","-1","RDK","131","34544","0.0-1.0-130.0","false","a,l","a","200","true","200","1","180","0.5","2","-1","1","600","400","white","gray","3","2","2","18.45","[45.699999999989814,5.30000000000291,16.80000000000291,16.69999999999709,16.599999999998545,16.700000000004366,16.69999999999709,16.69999999999709,16.60000000000582,16.700000000004366]","10"
"-1","-1","RDK","132","34745","0.0-1.0-131.0","false","a,l","a","200","true","200","1","180","0.5","2","-1","1","600","400","white","gray","3","2","2","16.608333333333576","[16.19999999999709,16.40000000000873,16.39999999999418,27,6.5,16.60000000000582,16.799999999995634,16.69999999999709,16.60000000000582,16.69999999999709,16.700000000004366,16.69999999999709]","12"
"-1","-1","RDK","133","34963","0.0-1.0-132.0","false","a,l","l","200","true","200","1","0","0.5","2","-1","1","600","400","white","gray","3","2","2","18.209090909091174","[17.40000000000873,16.19999999999709,16.69999999999709,16.5,16.700000000004366,35.599999999998545,13.799999999995634,17.200000000004366,16.799999999995634,16.69999999999709,16.700000000004366]","11"
"-1","-1","RDK","134","35179","0.0-1.0-133.0","false","a,l","a","200","true","200","1","180","0.5","2","-1","1","600","400","white","gray","3","2","2","18.19090909090896","[17.299999999995634,42.60000000000582,6.80000000000291,16.799999999995634,16.69999999999709,16.40000000000873,16.999999999992724,16.5,15.80000000000291,17.69999999999709,16.5]","11"
"-1","-1","RDK","135","35395","0.0-1.0-134.0","false","a,l","l","200","true","200","1","0","0.5","2","-1","1","600","400","white","gray","3","2","2","16.708333333333332","[18.200000000004366,15.400000000001455,16.799999999995634,16.400000000001455,24.599999999998545,8.19999999999709,17.30000000000291,16.099999999998545,17.500000000007276,16.59999999999127,16.60000000000582,16.799999999995634]","12"
"-1","-1","RDK","136","35612","0.0-1.0-135.0","false","a,l","l","200","true","200","1","0","0.5","2","-1","1","600","400","white","gray","3","2","2","18.136363636363637","[39.099999999998545,11.10000000000582,16.69999999999709,16.69999999999709,16.700000000004366,16.599999999998545,16.69999999999709,16.60000000000582,19,13.89999999999418,16.400000000001455]","11"
"-1","-1","RDK","137","35832","0.0-1.0-136.0","false","a,l","l","200","true","200","1","0","0.5","2","-1","1","600","400","white","gray","3","2","2","16.64166666666703","[17.200000000004366,16.099999999998545,31.200000000004366,2.6999999999970896,21.700000000004366,11.299999999995634,16.799999999995634,16.69999999999709,15.900000000008731,17.400000000001455,16.59999999999127,16.10000000000582]","12"
"-1","-1","RDK","138","36047","0.0-1.0-137.0","false","a,l","a","200","true","200","1","180","0.5","2","-1","1","600","400","white","gray","3","2","2","16.691666666666908","[17.19999999999709,16.5,16.700000000004366,16.599999999998545,16.599999999998545,16,20.299999999995634,12.900000000001455,17.5,16.69999999999709,16.700000000004366,16.60000000000582]","12"
"-1","-1","RDK","139","36263","0.0-1.0-138.0","false","a,l","l","200","true","200","1","0","0.5","2","-1","1","600","400","white","gray","3","2","2","16.683333333333696","[22.40000000000873,26.19999999999709,1.5999999999985448,16.599999999998545,16.700000000004366,16.69999999999709,16.69999999999709,16.60000000000582,16.299999999995634,19.30000000000291,14.400000000001455,16.69999999999709]","12"
"-1","-1","RDK","140","36480","0.0-1.0-139.0","false","a,l","a","200","true","200","1","180","0.5","2","-1","1","600","400","white","gray","3","2","2","16.625","[17.099999999998545,16.30000000000291,16.69999999999709,16.700000000004366,18.799999999995634,14.60000000000582,16.69999999999709,16.700000000004366,16.69999999999709,16.599999999998545,16.69999999999709,15.900000000001455]","12"
"-1","-1","RDK","141","36697","0.0-1.0-140.0","false","a,l","a","200","true","200","1","180","0.5","2","-1","1","600","400","white","gray","3","2","2","16.691666666666908","[17.400000000001455,16.30000000000291,16.599999999998545,16.599999999998545,16.700000000004366,16.5,28.39999999999418,4.400000000001455,17.30000000000291,16.599999999998545,16.80000000000291,16.69999999999709]","12"
"-1","-1","RDK","142","36913","0.0-1.0-141.0","false","a,l","a","200","true","200","1","180","0.5","2","-1","1","600","400","white","gray","3","2","2","18.199999999999736","[24,37.80000000000291,4.5,17.099999999998545,16.799999999995634,16.60000000000582,16.799999999995634,16.000000000007276,16.999999999992724,16.900000000001455,16.69999999999709]","11"
"-1","-1","RDK","143","37131","0.0-1.0-142.0","false","a,l","a","200","true","200","1","180","0.5","2","-1","1","600","400","white","gray","3","2","2","16.699999999999516","[17.39999999999418,16.200000000004366,16.69999999999709,16.700000000004366,16.59999999999127,15.900000000008731,16.39999999999418,17.80000000000291,16.69999999999709,16.5,16.799999999995634,16.700000000004366]","12"
"-1","-1","RDK","144","37348","0.0-1.0-143.0","false","a,l","l","200","true","200","1","0","0.5","2","-1","1","600","400","white","gray","3","2","2","16.691666666666908","[21.599999999998545,11.900000000001455,16.80000000000291,16.599999999998545,16.69999999999709,16.69999999999709,16.60000000000582,16.69999999999709,16.69999999999709,16.69999999999709,16.60000000000582,16.700000000004366]","12"
"-1","-1","RDK","145","37563","0.0-1.0-144.0","false","a,l","a","200","true","200","1","180","0.5","2","-1","1","600","400","white","gray","3","2","2","20.020000000000437","[17.200000000004366,16.30000000000291,59.599999999998545,6.900000000001455,15.69999999999709,17.69999999999709,16.5,17.000000000007276,16.599999999998545,16.69999999999709]","10"
"-1","-1","RDK","146","37780","0.0-1.0-145.0","false","a,l","a","200","true","200","1","180","0.5","2","-1","1","600","400","white","gray","3","2","2","16.633333333333212","[17.30000000000291,15.19999999999709,17.19999999999709,17.200000000004366,31.5,2.8000000000029104,14.89999999999418,17.60000000000582,16.59999999999127,16.700000000004366,16.69999999999709,15.900000000001455]","12"
"-1","-1","RDK","147","37995","0.0-1.0-146.0","false","a,l","l","200","true","200","1","0","0.5","2","-1","1","600","400","white","gray","3","2","2","18.43999999999942","[24.400000000001455,26.69999999999709,15.599999999998545,17.69999999999709,16.700000000004366,16.69999999999709,16.69999999999709,16.60000000000582,16.799999999995634,16.5]","10"
"-1","-1","RDK","148","38204","0.0-1.0-147.0","false","a,l","l","200","true","200","1","0","0.5","2","-1","1","600","400","white","gray","3","2","2","16.658333333333456","[17.69999999999709,15.500000000007276,16.69999999999709,28.099999999998545,4.599999999998545,17.099999999998545,16.80000000000291,16.799999999995634,16.60000000000582,16.700000000004366,16.69999999999709,16.599999999998545]","12"
"-1","-1","RDK","149","38412","0.0-1.0-148.0","false","a,l","a","200","true","200","1","180","0.5","2","-1","1","600","400","white","gray","3","2","2","16.709090909091174","[17.19999999999709,17.200000000004366,16.80000000000291,16.69999999999709,16.599999999998545,16.69999999999709,23.10000000000582,10.19999999999709,22,11.39999999999418,15.900000000008731]","11"
"-1","-1","RDK","150","38613","0.0-1.0-149.0","false","a,l","l","200","true","200","1","0","0.5","2","-1","1","600","400","white","gray","3","2","2","18.045454545454547","[16.30000000000291,16.39999999999418,16.60000000000582,33.799999999995634,16.10000000000582,16.799999999995634,16.5,16.80000000000291,16.69999999999709,16.700000000004366,15.799999999995634]","11"
"-1","-1","RDK","151","38828","0.0-1.0-150.0","false","a,l","l","200","true","200","1","0","0.5","2","-1","1","600","400","white","gray","3","2","2","16.772727272727273","[18.19999999999709,16.19999999999709,16.700000000004366,16.69999999999709,16.700000000004366,16.599999999998545,24.69999999999709,8.80000000000291,16.400000000001455,16.799999999995634,16.700000000004366]","11"
"-1","-1","RDK","152","39030","0.0-1.0-151.0","false","a,l","a","200","true","200","1","180","0.5","2","-1","1","600","400","white","gray","3","2","2","19.98999999999942","[16.80000000000291,16.299999999995634,50.700000000004366,16.09999999999127,16.60000000000582,16.599999999998545,16.69999999999709,16.69999999999709,16.60000000000582,16.799999999995634]","10"
"-1","-1","RDK","153","39249","0.0-1.0-152.0","false","a,l","l","200","true","200","1","0","0.5","2","-1","1","600","400","white","gray","3","2","2","18.209090909090513","[18.19999999999709,15.400000000001455,16.60000000000582,16.799999999995634,16.69999999999709,35.900000000001455,13.900000000001455,16.80000000000291,16.599999999998545,15.799999999995634,17.599999999998545]","11"
"-1","-1","RDK","154","39465","0.0-1.0-153.0","false","a,l","a","200","true","200","1","180","0.5","2","-1","1","600","400","white","gray","3","2","2","20.030000000000292","[17.200000000004366,49.5,17,16.60000000000582,16.69999999999709,16.700000000004366,16.59999999999127,16.700000000004366,16.69999999999709,16.599999999998545]","10"
"-1","-1","RDK","155","39679","0.0-1.0-154.0","false","a,l","l","200","true","200","1","0","0.5","2","-1","1","600","400","white","gray","3","2","2","16.800000000000264","[18.700000000004366,16.09999999999127,16.10000000000582,16.39999999999418,17.599999999998545,16.500000000007276,16.69999999999709,16.19999999999709,17.200000000004366,16.60000000000582,16.69999999999709]","11"
"-1","-1","RDK","156","39881","0.0-1.0-155.0","false","a,l","a","200","true","200","1","180","0.5","2","-1","1","600","400","white","gray","3","2","2","16.633333333333212","[16.599999999998545,16.39999999999418,16.60000000000582,16.599999999998545,16.80000000000291,16.599999999998545,16.599999999998545,23.099999999998545,10.200000000004366,16.80000000000291,16.59999999999127,16.700000000004366]","12"
"-1","-1","RDK","157","40097","0.0-1.0-156.0","false","a,l","a","200","true","200","1","180","0.5","2","-1","1","600","400","white","gray","3","2","2","18.199999999999076","[18.39999999999418,14.5,36.89999999999418,13.700000000004366,16.69999999999709,16.60000000000582,16.69999999999709,16.700000000004366,16.59999999999127,16.10000000000582,17.299999999995634]","11"
"-1","-1","RDK","158","40315","0.0-1.0-157.0","false","a,l","l","200","true","200","1","0","0.5","2","-1","1","600","400","white","gray","3","2","2","16.691666666666304","[17.299999999995634,16.30000000000291,16.599999999998545,16.69999999999709,23.900000000001455,8.900000000001455,18.799999999995634,15.099999999998545,16.80000000000291,16.599999999998545,16.69999999999709,16.60000000000582]","12"
"-1","-1","RDK","159","40531","0.0-1.0-158.0","false","a,l","l","200","true","200","1","0","0.5","2","-1","1","600","400","white","gray","3","2","2","16.70000000000012","[22.299999999995634,15.400000000001455,12.099999999998545,17.200000000004366,16.69999999999709,16.60000000000582,16.69999999999709,16.700000000004366,16.59999999999127,16.799999999995634,16.60000000000582,16.700000000004366]","12"
"-1","-1","RDK","160","40746","0.0-1.0-159.0","false","a,l","a","200","true","200","1","180","0.5","2","-1","1","600","400","white","gray","3","2","2","16.772727272727273","[18.30000000000291,16.09999999999127,16.60000000000582,22.30000000000291,10.89999999999418,16.80000000000291,16.80000000000291,16.59999999999127,16.700000000004366,16.69999999999709,16.700000000004366]","11"
"-1","-1","RDK","161","40948","0.0-1.0-160.0","false","a,l","l","200","true","200","1","0","0.5","2","-1","1","600","400","white","gray","3","2","2","16.616666666666788","[16.30000000000291,15.400000000001455,17.69999999999709,16.69999999999709,16.599999999998545,16.700000000004366,16.89999999999418,17.80000000000291,15.30000000000291,16.700000000004366,16.69999999999709,16.599999999998545]","12"
"-1","-1","RDK","162","41167","0.0-1.0-161.0","false","a,l","l","200","true","200","1","0","0.5","2","-1","1","600","400","white","gray","3","2","2","20.030000000001017","[27.900000000001455,38.30000000000291,16.30000000000291,16.89999999999418,17.60000000000582,16.69999999999709,16.700000000004366,16.69999999999709,16.599999999998545,16.60000000000582]","10"
"-1","-1","RDK","163","41382","0.0-1.0-162.0","false","a,l","a","200","true","200","1","180","0.5","2","-1","1","600","400","white","gray","3","2","2","22.25555555555507","[17.39999999999418,16.099999999998545,16.80000000000291,66.09999999999854,17.19999999999709,16.700000000004366,16.69999999999709,16.60000000000582,16.69999999999709]","9"
"-1","-1","RDK","164","41598","0.0-1.0-163.0","false","a,l","l","200","true","200","1","0","0.5","2","-1","1","600","400","white","gray","3","2","2","16.683333333333092","[23.5,16.30000000000291,10.39999999999418,16.30000000000291,17.099999999998545,16.69999999999709,16.60000000000582,15.80000000000291,17.59999999999127,16.60000000000582,16.69999999999709,16.599999999998545]","12"
"-1","-1","RDK","165","41816","0.0-1.0-164.0","false","a,l","a","200","true","200","1","180","0.5","2","-1","1","600","400","white","gray","3","2","2","16.699999999999516","[17.19999999999709,16.5,16.60000000000582,15.69999999999709,17.700000000004366,16.69999999999709,16.599999999998545,16.69999999999709,16.700000000004366,16.69999999999709,16.700000000004366,16.59999999999127]","12"
"-1","-1","RDK","166","42029","0.0-1.0-165.0","false","a,l","a","200","true","200","1","180","0.5","2","-1","1","600","400","white","gray","3","2","2","16.790909090908826","[18.80000000000291,15.89999999999418,16.599999999998545,16.700000000004366,15.599999999998545,27.099999999998545,6.80000000000291,17.099999999998545,16.700000000004366,16.69999999999709,16.69999999999709]","11"
"-1","-1","RDK","167","42232","0.0-1.0-166.0","false","a,l","a","200","true","200","1","180","0.5","2","-1","1","600","400","white","gray","3","2","2","19.979999999999563","[16.900000000001455,51.69999999999709,14.400000000001455,16.799999999995634,16.700000000004366,16.599999999998545,16.599999999998545,16.80000000000291,16.599999999998545,16.69999999999709]","10"
"-1","-1","RDK","168","42449","0.0-1.0-167.0","false","a,l","l","200","true","200","1","0","0.5","2","-1","1","600","400","white","gray","3","2","2","16.683333333333696","[17.099999999998545,16.40000000000873,16.69999999999709,26.19999999999709,7.100000000005821,16.59999999999127,16.80000000000291,16.700000000004366,16.599999999998545,16.69999999999709,16.69999999999709,16.60000000000582]","12"
"-1","-1","RDK","169","42663","0.0-1.0-168.0","false","a,l","a","200","true","200","1","180","0.5","2","-1","1","600","400","white","gray","3","2","2","16.772727272727273","[18.299999999995634,16.200000000004366,16.599999999998545,16.60000000000582,16.599999999998545,16.80000000000291,29.999999999992724,2.599999999998545,16.700000000004366,17.400000000001455,16.69999999999709]","11"
"-1","-1","RDK","170","42864","0.0-1.0-169.0","false","a,l","a","200","true","200","1","180","0.5","2","-1","1","600","400","white","gray","3","2","2","16.649999999999636","[16.799999999995634,16.30000000000291,16.69999999999709,27.599999999998545,4.700000000004366,17.099999999998545,17.200000000004366,16.69999999999709,16.69999999999709,16.700000000004366,16.69999999999709,16.599999999998545]","12"
"-1","-1","RDK","171","43081","0.0-1.0-170.0","false","a,l","l","200","true","200","1","0","0.5","2","-1","1","600","400","white","gray","3","2","2","18.163636363636627","[18.10000000000582,15.299999999995634,16.80000000000291,16.69999999999709,16.700000000004366,35.89999999999418,13.5,17.30000000000291,16.69999999999709,16.700000000004366,16.099999999998545]","11"
"-1","-1","RDK","172","43298","0.0-1.0-171.0","false","a,l","l","200","true","200","1","0","0.5","2","-1","1","600","400","white","gray","3","2","2","18.09090909090909","[25.099999999998545,27,14.60000000000582,16.799999999995634,15.599999999998545,17.700000000004366,16.69999999999709,16.700000000004366,23.89999999999418,9.30000000000291,15.599999999998545]","11"
"-1","-1","RDK","173","43513","0.0-1.0-172.0","false","a,l","a","200","true","200","1","180","0.5","2","-1","1","600","400","white","gray","3","2","2","16.727272727272066","[17.599999999998545,16.30000000000291,16.599999999998545,26.599999999998545,6.69999999999709,15.900000000001455,17.5,16.69999999999709,16.700000000004366,16.69999999999709,16.69999999999709]","11"
"-1","-1","RDK","174","43716","0.0-1.0-173.0","false","a,l","a","200","true","200","1","180","0.5","2","-1","1","600","400","white","gray","3","2","2","16.658333333333456","[16.80000000000291,16.400000000001455,16.69999999999709,16.599999999998545,16.700000000004366,16.69999999999709,16.60000000000582,30.89999999999418,1.8000000000029104,16.30000000000291,17.69999999999709,16.69999999999709]","12"
"-1","-1","RDK","175","43930","0.0-1.0-174.0","false","a,l","l","200","true","200","1","0","0.5","2","-1","1","600","400","white","gray","3","2","2","18.43000000000029","[19.39999999999418,15.200000000004366,34,15.900000000001455,16.80000000000291,16.69999999999709,16.700000000004366,16.59999999999127,16.800000000010186,16.19999999999709]","10"
"-1","-1","RDK","176","44133","0.0-1.0-175.0","false","a,l","l","200","true","200","1","0","0.5","2","-1","1","600","400","white","gray","3","2","2","16.600000000000364","[16,16.400000000001455,16.799999999995634,16.700000000004366,16.599999999998545,28.700000000004366,4.5,16.09999999999127,17.40000000000873,16.69999999999709,16.69999999999709,16.60000000000582]","12"
"-1","-1","RDK","177","44347","0.0-1.0-176.0","false","a,l","a","200","true","200","1","180","0.5","2","-1","1","600","400","white","gray","3","2","2","16.70000000000012","[16.59999999999127,26.500000000007276,7.19999999999709,16.700000000004366,16.69999999999709,16.599999999998545,16.69999999999709,16.700000000004366,16.599999999998545,16.799999999995634,16.60000000000582,16.700000000004366]","12"
"-1","-1","RDK","178","44564","0.0-1.0-177.0","false","a,l","l","200","true","200","1","0","0.5","2","-1","1","600","400","white","gray","3","2","2","18.21818181818129","[17.30000000000291,16.39999999999418,36.299999999995634,13.60000000000582,16.799999999995634,16.700000000004366,16.69999999999709,16.60000000000582,16.5,16.900000000001455,16.59999999999127]","11"
"-1","-1","RDK","179","44783","0.0-1.0-178.0","false","a,l","a","200","true","200","1","180","0.5","2","-1","1","600","400","white","gray","3","2","2","18.21818181818129","[17.19999999999709,16.400000000001455,16.69999999999709,16.700000000004366,34.19999999999709,15.69999999999709,16.80000000000291,16.599999999998545,16.69999999999709,16.700000000004366,16.69999999999709]","11"
"-1","-1","RDK","180","45000","0.0-1.0-179.0","false","a,l","a","200","true","200","1","180","0.5","2","-1","1","600","400","white","gray","3","2","2","16.70000000000012","[23.499999999992724,14.80000000000291,12,16.80000000000291,16.599999999998545,16.700000000004366,16.69999999999709,16.69999999999709,16.400000000001455,16.90000000000873,16.59999999999127,16.700000000004366]","12"
"-1","-1","RDK","181","45216","0.0-1.0-180.0","false","a,l","l","200","true","200","1","0","0.5","2","-1","1","600","400","white","gray","3","2","2","18.15454545454585","[17.200000000004366,16.30000000000291,16.799999999995634,37,12.900000000001455,16.80000000000291,16.599999999998545,16.69999999999709,16.69999999999709,16.60000000000582,16.099999999998545]","11"
"-1","-1","RDK","182","45432","0.0-1.0-181.0","false","a,l","l","200","true","200","1","0","0.5","2","-1","1","600","400","white","gray","3","2","2","16.683333333333092","[16.099999999998545,17.5,16.60000000000582,16.59999999999127,16.700000000004366,16.000000000007276,22.09999999999127,11.400000000001455,17.200000000004366,16.69999999999709,16.700000000004366,16.59999999999127]","12"
"-1","-1","RDK","183","45647","0.0-1.0-182.0","false","a,l","a","200","true","200","1","180","0.5","2","-1","1","600","400","white","gray","3","2","2","18.350000000000726","[17.80000000000291,36.099999999998545,13.5,16.799999999995634,16.60000000000582,16.799999999995634,16.60000000000582,16.69999999999709,16.700000000004366,15.900000000001455]","10"
"-1","-1","RDK","184","45851","0.0-1.0-183.0","false","a,l","l","200","true","200","1","0","0.5","2","-1","1","600","400","white","gray","3","2","2","16.658333333333456","[17.400000000001455,15.80000000000291,16.599999999998545,16.599999999998545,16,17.500000000007276,21.19999999999709,12.099999999998545,16.599999999998545,16.80000000000291,16.69999999999709,16.599999999998545]","12"
"-1","-1","RDK","185","46066","0.0-1.0-184.0","false","a,l","a","200","true","200","1","180","0.5","2","-1","1","600","400","white","gray","3","2","2","16.73333333333297","[19.69999999999709,22.80000000000291,8.69999999999709,16.700000000004366,16.69999999999709,16.700000000004366,15.999999999992724,17.400000000001455,16.60000000000582,16.700000000004366,16.699999999989814,16.099999999998545]","12"
"-1","-1","RDK","186","46283","0.0-1.0-185.0","false","a,l","l","200","true","200","1","0","0.5","2","-1","1","600","400","white","gray","3","2","2","16.691666666666304","[17.299999999995634,16.19999999999709,16.700000000004366,16.60000000000582,16.799999999995634,16.69999999999709,16.60000000000582,16.69999999999709,16.700000000004366,16.69999999999709,16.599999999998545,16.69999999999709]","12"
"-1","-1","RDK","187","46500","0.0-1.0-186.0","false","a,l","a","200","true","200","1","180","0.5","2","-1","1","600","400","white","gray","3","2","2","18.209090909091174","[17.10000000000582,16.499999999992724,16.69999999999709,16.700000000004366,16.69999999999709,36.10000000000582,13.69999999999709,16.700000000004366,16.799999999995634,16.60000000000582,16.69999999999709]","11"
"-1","-1","RDK","188","46716","0.0-1.0-187.0","false","a,l","l","200","true","200","1","0","0.5","2","-1","1","600","400","white","gray","3","2","2","18.21818181818261","[17.200000000004366,37.299999999995634,12.30000000000291,16.900000000001455,16.69999999999709,16.599999999998545,16.700000000004366,16.69999999999709,16.60000000000582,16.69999999999709,16.700000000004366]","11"
"-1","-1","RDK","189","46933","0.0-1.0-188.0","false","a,l","l","200","true","200","1","0","0.5","2","-1","1","600","400","white","gray","3","2","2","16.772727272727273","[19.400000000001455,15.099999999998545,15.80000000000291,24.69999999999709,8.900000000001455,16.5,17.400000000001455,16.69999999999709,16.700000000004366,16.69999999999709,16.599999999998545]","11"
"-1","-1","RDK","190","47135","0.0-1.0-189.0","false","a,l","l","200","true","200","1","0","0.5","2","-1","1","600","400","white","gray","3","2","2","19.740000000000144","[14.900000000001455,16.299999999995634,16.30000000000291,16.69999999999709,16.60000000000582,16.69999999999709,16.700000000004366,51.89999999999418,14.400000000001455,16.900000000001455]","10"
"-1","-1","RDK","191","47354","0.0-1.0-190.0","false","a,l","l","200","true","200","1","0","0.5","2","-1","1","600","400","white","gray","3","2","2","18.15454545454519","[17.299999999995634,16.599999999998545,16.5,39.30000000000291,9.900000000001455,17,17,16.599999999998545,15.900000000001455,17.60000000000582,15.999999999992724]","11"
"-1","-1","RDK","192","47565","0.0-1.0-191.0","false","a,l","l","200","true","200","1","0","0.5","2","-1","1","600","400","white","gray","3","2","2","16.745454545454944","[18.19999999999709,16.30000000000291,16.700000000004366,16.799999999995634,16.200000000004366,17.099999999998545,25.30000000000291,8.099999999998545,16.5,16.69999999999709,16.30000000000291]","11"
"-1","-1","RDK","193","47766","0.0-1.0-192.0","false","a,l","a","200","true","200","1","180","0.5","2","-1","1","600","400","white","gray","3","2","2","18.145454545455074","[17.30000000000291,15.700000000004366,39.299999999995634,10.5,16.80000000000291,16.69999999999709,16.599999999998545,16.700000000004366,16.69999999999709,16.80000000000291,16.5]","11"
"-1","-1","RDK","194","47984","0.0-1.0-193.0","false","a,l","a","200","true","200","1","180","0.5","2","-1","1","600","400","white","gray","3","2","2","16.691666666666908","[17.30000000000291,16.19999999999709,16.69999999999709,16.700000000004366,28.099999999998545,4.599999999998545,21.599999999998545,12.30000000000291,16.69999999999709,16.700000000004366,16.69999999999709,16.700000000004366]","12"
"-1","-1","RDK","195","48201","0.0-1.0-194.0","false","a,l","l","200","true","200","1","0","0.5","2","-1","1","600","400","white","gray","3","2","2","16.691666666666304","[25.80000000000291,16,8.400000000001455,16.69999999999709,16.80000000000291,16.599999999998545,16.700000000004366,16.69999999999709,16,17.099999999998545,16.900000000001455,16.59999999999127]","12"
"-1","-1","RDK","196","48415","0.0-1.0-195.0","false","a,l","a","200","true","200","1","180","0.5","2","-1","1","600","400","white","gray","3","2","2","16.650000000000244","[17.60000000000582,15.999999999992724,16.700000000004366,20.099999999998545,13.30000000000291,16.200000000004366,17.19999999999709,16.69999999999709,16.60000000000582,16.69999999999709,16.700000000004366,15.999999999992724]","12"
"-1","-1","RDK","197","48634","0.0-1.0-196.0","false","a,l","a","200","true","200","1","180","0.5","2","-1","1","600","400","white","gray","3","2","2","18.21818181818195","[17.19999999999709,16.10000000000582,16.999999999992724,16.700000000004366,16.69999999999709,36.599999999998545,13.30000000000291,16.80000000000291,16.700000000004366,16.59999999999127,16.700000000004366]","11"
"-1","-1","RDK","198","48852","0.0-1.0-197.0","false","a,l","a","200","true","200","1","180","0.5","2","-1","1","600","400","white","gray","3","2","2","18.209090909091174","[17.799999999995634,36.19999999999709,12.000000000007276,17.599999999998545,16.69999999999709,16.5,16.900000000001455,16.599999999998545,16.69999999999709,16.500000000007276,16.80000000000291]","11"
"-1","-1","RDK","199","49067","0.0-1.0-198.0","false","a,l","a","200","true","200","1","180","0.5","2","-1","1","600","400","white","gray","3","2","2","18.136363636363637","[17.099999999998545,16.39999999999418,16.5,41.60000000000582,8.5,16.69999999999709,16.799999999995634,16.700000000004366,16.599999999998545,16.700000000004366,15.900000000001455]","11"
"-1","-1","RDK","200","49284","0.0-1.0-199.0","false","a,l","a","200","true","200","1","180","0.5","2","-1","1","600","400","white","gray","3","2","2","18.19090909090896","[17.099999999998545,16.400000000001455,16.599999999998545,16.700000000004366,15.799999999995634,43.900000000001455,6.899999999994179,16.700000000004366,16.69999999999709,16.60000000000582,16.69999999999709]","11"
