"rt","key_press","trial_type","trial_index","time_elapsed","internal_node_id","correct","choices","correct_choice","trial_duration","response_ends_trial","number_of_dots","number_of_sets","coherent_direction","coherence","dot_radius","dot_life","move_distance","aperture_width","aperture_height","dot_color","background_color","RDK_type","aperture_type","reinsert_type","frame_rate","frame_rate_array","number_of_frames"
"1690","13","text","0","1692","0.0-0.0","","","","","","","","","","","","","","","","","","","","","",""
"-1","-1","RDK","1","2918","0.0-1.0-0.0","false","a,l","l","200","true","200","1","0","0.5","2","-1","1","600","400","white","gray","3","2","2","16.683333333333355","[18.200000000000273,14.399999999999636,17.800000000000637,16.399999999999636,16.700000000000273,16.59999999999991,16.59999999999991,16,17.40000000000009,16.700000000000273,16.699999999999363,16.700000000000273]","12"
"-1","-1","RDK","2","3134","0.0-1.0-1.0","false","a,l","a","200","true","200","1","180","0.5","2","-1","1","600","400","white","gray","3","2","2","16.708333333333332","[17.699999999999818,16.09999999999991,16.59999999999991,16.700000000000273,16,19.09999999999991,14.800000000000182,16.699999999999818,16.100000000000364,17.299999999999727,16.59999999999991,16.800000000000182]","12"
"-1","-1","RDK","3","3351","0.0-1.0-2.0","false","a,l","l","200","true","200","1","0","0.5","2","-1","1","600","400","white","gray","3","2","2","18.209090909090925","[25.800000000000182,24.200000000000273,16.899999999999636,16.699999999999818,16.700000000000273,16.59999999999991,16.700000000000273,16.699999999999818,16.700000000000273,16.699999999999363,16.600000000000364]","11"
"-1","-1","RDK","4","3567","0.0-1.0-3.0","false","a,l","l","200","true","200","1","0","0.5","2","-1","1","600","400","white","gray","3","2","2","18.200000000000024","[18.299999999999727,14.600000000000364,36.499999999999545,14.200000000000273,18.700000000000273,13.799999999999727,17.300000000000182,16.90000000000009,16.59999999999991,16.199999999999818,17.100000000000364]","11"
"-1","-1","RDK","5","3784","0.0-1.0-4.0","false","a,l","l","200","true","200","1","0","0.5","2","-1","1","600","400","white","gray","3","2","2","18.218181818181826","[17.40000000000009,16.09999999999991,16.800000000000182,16.700000000000273,16.699999999999363,36.70000000000027,13.199999999999818,16.800000000000182,16.700000000000273,16.59999999999991,16.699999999999818]","11"
"-1","-1","RDK","6","3999","0.0-1.0-5.0","false","a,l","a","200","true","200","1","180","0.5","2","-1","1","600","400","white","gray","3","2","2","18.420000000000027","[17.5,40.59999999999991,9.299999999999727,16.600000000000364,16.799999999999727,16.700000000000273,15.900000000000091,17.399999999999636,16.699999999999818,16.700000000000728]","10"
"-1","-1","RDK","7","4201","0.0-1.0-6.0","false","a,l","l","200","true","200","1","0","0.5","2","-1","1","600","400","white","gray","3","2","2","18.118181818181835","[16.100000000000364,16.399999999999636,16.899999999999636,16.600000000000364,16.599999999999454,35.5,14.400000000000546,16.699999999999818,15.800000000000182,17.699999999999818,16.600000000000364]","11"
"-1","-1","RDK","8","4415","0.0-1.0-7.0","false","a,l","l","200","true","200","1","0","0.5","2","-1","1","600","400","white","gray","3","2","2","18.46999999999998","[26.49999999999909,26.50000000000091,15,16.699999999999818,16.699999999999818,16.800000000000182,16.599999999999454,16.600000000000364,16.099999999999454,17.200000000000728]","10"
"-1","-1","RDK","9","4618","0.0-1.0-8.0","false","a,l","l","200","true","200","1","0","0.5","2","-1","1","600","400","white","gray","3","2","2","16.649999999999938","[16.600000000000364,16.5,16.699999999999818,27.199999999999818,6,16.599999999999454,16.700000000000728,16.899999999999636,16.5,16.800000000000182,16.599999999999454,16.699999999999818]","12"
"-1","-1","RDK","10","4833","0.0-1.0-9.0","false","a,l","a","200","true","200","1","180","0.5","2","-1","1","600","400","white","gray","3","2","2","18.14545454545458","[18.300000000000182,15.199999999999818,16.800000000000182,16.699999999999818,16.600000000000364,16,26.49999999999909,7.0000000000009095,43.599999999999454,6.400000000000546,16.5]","11"
"-1","-1","RDK","11","5054","0.0-1.0-10.0","false","a,l","l","200","true","200","1","0","0.5","2","-1","1","600","400","white","gray","3","2","2","18.227272727272727","[17.300000000000182,16.199999999999818,36.80000000000018,13.400000000000546,16.599999999999454,16.699999999999818,16.700000000000728,16.49999999999909,16.700000000000728,16.099999999999454,17.5]","11"
"-1","-1","RDK","12","5270","0.0-1.0-11.0","false","a,l","l","200","true","200","1","0","0.5","2","-1","1","600","400","white","gray","3","2","2","16.700000000000045","[17.199999999999818,16.400000000000546,16.699999999999818,16.5,16.800000000000182,16.699999999999818,30.100000000000364,2.5999999999994543,17.199999999999818,16.199999999999818,17.200000000000728,16.800000000000182]","12"
"-1","-1","RDK","13","5483","0.0-1.0-12.0","false","a,l","l","200","true","200","1","0","0.5","2","-1","1","600","400","white","gray","3","2","2","18.439999999999962","[25.599999999999454,38.100000000000364,4.400000000000546,16.49999999999909,16.300000000000182,17,16.699999999999818,16.600000000000364,16.700000000000728,16.49999999999909]","10"
"-1","-1","RDK","14","5685","0.0-1.0-13.0","false","a,l","l","200","true","200","1","0","0.5","2","-1","1","600","400","white","gray","3","2","2","18.118181818181835","[16.099999999999454,16.600000000000364,16.599999999999454,16.700000000000728,17.199999999999818,32.30000000000018,17.099999999999454,16.700000000000728,16.699999999999818,16.700000000000728,16.599999999999454]","11"
"-1","-1","RDK","15","5903","0.0-1.0-14.0","false","a,l","a","200","true","200","1","180","0.5","2","-1","1","600","400","white","gray","3","2","2","16.69166666666676","[24.300000000000182,15.900000000000546,9.100000000000364,17.599999999999454,16.700000000000728,16.699999999999818,16.69999999999891,16.600000000000364,16.5,16.900000000000546,16.599999999999454,16.700000000000728]","12"
"-1","-1","RDK","16","6119","0.0-1.0-15.0","false","a,l","a","200","true","200","1","180","0.5","2","-1","1","600","400","white","gray","3","2","2","16.69166666666668","[17.400000000000546,16.19999999999891,16.5,21.699999999999818,11.700000000000728,16.800000000000182,16.600000000000364,16.599999999999454,16.799999999999272,16.700000000000728,16.600000000000364,16.699999999999818]","12"
"-1","-1","RDK","17","6335","0.0-1.0-16.0","false","a,l","l","200","true","200","1","0","0.5","2","-1","1","600","400","white","gray","3","2","2","18.209090909090925","[19.5,14.100000000000364,16.699999999999818,16.699999999999818,16.600000000000364,33,17.099999999999454,16.600000000000364,16.699999999999818,16.700000000000728,16.599999999999454]","11"
"-1","-1","RDK","18","6552","0.0-1.0-17.0","false","a,l","l","200","true","200","1","0","0.5","2","-1","1","600","400","white","gray","3","2","2","18.209090909090925","[17.600000000000364,48.29999999999927,2.5,15,16.800000000000182,16.699999999999818,16.699999999999818,16.700000000000728,16.600000000000364,16.5,16.899999999999636]","11"
"-1","-1","RDK","19","6769","0.0-1.0-18.0","false","a,l","a","200","true","200","1","180","0.5","2","-1","1","600","400","white","gray","3","2","2","16.683333333333394","[17.200000000000728,16.299999999999272,16.600000000000364,16.300000000000182,27.900000000000546,5.799999999999272,16.600000000000364,16.899999999999636,16.600000000000364,16.699999999999818,16.699999999999818,16.600000000000364]","12"
"-1","-1","RDK","20","6983","0.0-1.0-19.0","false","a,l","l","200","true","200","1","0","0.5","2","-1","1","600","400","white","gray","3","2","2","16.73636363636359","[19.199999999999818,15.400000000000546,16.899999999999636,16.49999999999909,16.800000000000182,16.600000000000364,23.399999999999636,9.00000000000091,17.5,16.600000000000364,16.19999999999891]","11"
"-1","-1","RDK","21","7198","0.0-1.0-20.0","false","a,l","a","200","true","200","1","180","0.5","2","-1","1","600","400","white","gray","3","2","2","17.927272727272793","[15.199999999999818,16.5,16.50000000000091,45.19999999999891,4.800000000000182,16.599999999999454,16.800000000000182,16.699999999999818,16.700000000000728,16.699999999999818,15.50000000000091]","11"
"-1","-1","RDK","22","7400","0.0-1.0-21.0","false","a,l","a","200","true","200","1","180","0.5","2","-1","1","600","400","white","gray","3","2","2","16.73636363636359","[18.19999999999891,15.700000000000728,16.599999999999454,16.700000000000728,16.799999999999272,16.400000000000546,31.800000000000182,2.399999999999636,16,16.699999999999818,16.800000000000182]","11"
"-1","-1","RDK","23","7601","0.0-1.0-22.0","false","a,l","l","200","true","200","1","0","0.5","2","-1","1","600","400","white","gray","3","2","2","18.15454545454544","[16.600000000000364,16.400000000000546,46.69999999999891,2.699999999999818,17.200000000000728,16.800000000000182,16.599999999999454,15.600000000000364,17.800000000000182,16.599999999999454,16.699999999999818]","11"
"-1","-1","RDK","24","7819","0.0-1.0-23.0","false","a,l","a","200","true","200","1","180","0.5","2","-1","1","600","400","white","gray","3","2","2","18.209090909090925","[17.30000000000109,16.300000000000182,16.599999999999454,16.699999999999818,36,13.699999999999818,16.199999999999818,17.400000000000546,15.699999999999818,17.699999999999818,16.699999999999818]","11"
"-1","-1","RDK","25","8036","0.0-1.0-24.0","false","a,l","l","200","true","200","1","0","0.5","2","-1","1","600","400","white","gray","3","2","2","16.691666666666606","[24.899999999999636,15.399999999999636,9,17.600000000000364,16.699999999999818,16.699999999999818,16.700000000000728,16.600000000000364,16.699999999999818,16.699999999999818,16.599999999999454,16.699999999999818]","12"
"-1","-1","RDK","26","8253","0.0-1.0-25.0","false","a,l","a","200","true","200","1","180","0.5","2","-1","1","600","400","white","gray","3","2","2","16.69999999999997","[18.200000000000728,14.799999999999272,17.200000000000728,15.799999999999272,17.600000000000364,16.599999999998545,15.900000000001455,17.5,16.799999999999272,16,17.100000000000364,16.899999999999636]","12"
"-1","-1","RDK","27","8470","0.0-1.0-26.0","false","a,l","a","200","true","200","1","180","0.5","2","-1","1","600","400","white","gray","3","2","2","18.218181818181787","[17.700000000000728,16.299999999999272,16.399999999999636,16.400000000001455,16.899999999999636,36.20000000000073,13.599999999998545,16.80000000000109,16.599999999998545,16.700000000000728,16.799999999999272]","11"
"-1","-1","RDK","28","8683","0.0-1.0-27.0","false","a,l","l","200","true","200","1","0","0.5","2","-1","1","600","400","white","gray","3","2","2","18.45","[18.099999999998545,36.20000000000073,13.5,16.69999999999891,16.600000000000364,16.700000000000728,16.700000000000728,16.600000000000364,16.69999999999891,16.700000000000728]","10"
"-1","-1","RDK","29","8886","0.0-1.0-28.0","false","a,l","a","200","true","200","1","180","0.5","2","-1","1","600","400","white","gray","3","2","2","16.641666666666726","[17.30000000000109,15.799999999997453,16.600000000000364,16.700000000000728,16.5,16.899999999999636,20.100000000000364,13.199999999998909,16.600000000000364,16.80000000000109,16.600000000000364,16.600000000000364]","12"
"-1","-1","RDK","30","9104","0.0-1.0-29.0","false","a,l","l","200","true","200","1","0","0.5","2","-1","1","600","400","white","gray","3","2","2","16.69166666666676","[23.00000000000182,23.899999999999636,3.1999999999989086,15.899999999999636,17.700000000000728,16.600000000000364,16.099999999998545,17.200000000000728,16.5,16.900000000001455,16.700000000000728,16.599999999998545]","12"
"-1","-1","RDK","31","9317","0.0-1.0-30.0","false","a,l","l","200","true","200","1","0","0.5","2","-1","1","600","400","white","gray","3","2","2","16.790909090908993","[18.399999999999636,16.299999999999272,16.5,20.399999999997817,13,16.600000000000364,16.80000000000109,16.69999999999891,16.700000000000728,16.700000000000728,16.600000000000364]","11"
"-1","-1","RDK","32","9520","0.0-1.0-31.0","false","a,l","l","200","true","200","1","0","0.5","2","-1","1","600","400","white","gray","3","2","2","16.658333333333303","[16.600000000000364,16.49999999999818,16.700000000000728,16.700000000000728,16.69999999999891,16.600000000000364,16.700000000000728,19.19999999999891,14.100000000002183,16.69999999999709,16.600000000000364,16.80000000000109]","12"
"-1","-1","RDK","33","9735","0.0-1.0-32.0","false","a,l","l","200","true","200","1","0","0.5","2","-1","1","600","400","white","gray","3","2","2","19.99999999999982","[19.899999999999636,46.69999999999891,17.100000000000364,16.69999999999891,16.700000000000728,16.700000000000728,15.799999999999272,16.600000000000364,17.400000000001455,16.399999999997817]","10"
"-1","-1","RDK","34","9952","0.0-1.0-33.0","false","a,l","l","200","true","200","1","0","0.5","2","-1","1","600","400","white","gray","3","2","2","18.209090909090843","[17.200000000000728,16.299999999999272,16.799999999999272,37.70000000000073,12.200000000000728,16.69999999999891,16.80000000000109,16.69999999999891,16.600000000000364,16.69999999999891,16.600000000000364]","11"
"-1","-1","RDK","35","10168","0.0-1.0-34.0","false","a,l","a","200","true","200","1","180","0.5","2","-1","1","600","400","white","gray","3","2","2","16.69999999999997","[17.399999999999636,16.100000000000364,16.799999999999272,16.700000000000728,16.700000000000728,16.5,24.900000000001455,8.699999999998909,19.299999999999272,13.900000000001455,16.799999999999272,16.599999999998545]","12"
"-1","-1","RDK","36","10387","0.0-1.0-35.0","false","a,l","a","200","true","200","1","180","0.5","2","-1","1","600","400","white","gray","3","2","2","16.69166666666676","[17.69999999999891,15.800000000001091,16.700000000000728,23,10.299999999997453,16.80000000000109,16.700000000000728,16.5,16.700000000000728,16.69999999999891,16.600000000000364,16.80000000000109]","12"
"-1","-1","RDK","37","10604","0.0-1.0-36.0","false","a,l","l","200","true","200","1","0","0.5","2","-1","1","600","400","white","gray","3","2","2","18.181818181818347","[17.30000000000109,16.19999999999891,16.80000000000109,16.69999999999891,16.600000000000364,38.900000000001455,10.999999999998181,16.900000000001455,16.599999999998545,16.700000000000728,16.30000000000109]","11"
"-1","-1","RDK","38","10817","0.0-1.0-37.0","false","a,l","l","200","true","200","1","0","0.5","2","-1","1","600","400","white","gray","3","2","2","18.48000000000011","[19.50000000000182,38.29999999999927,10.299999999999272,16.600000000000364,16.799999999999272,16.600000000000364,16.799999999999272,16.600000000000364,16.700000000000728,16.600000000000364]","10"
"-1","-1","RDK","39","11020","0.0-1.0-38.0","false","a,l","a","200","true","200","1","180","0.5","2","-1","1","600","400","white","gray","3","2","2","16.658333333333303","[16.700000000000728,16.399999999999636,16.69999999999891,16.600000000000364,28.399999999999636,4.900000000001455,20.99999999999818,12.300000000001091,16.69999999999891,16.80000000000109,16.099999999998545,17.30000000000109]","12"
"-1","-1","RDK","40","11236","0.0-1.0-39.0","false","a,l","a","200","true","200","1","180","0.5","2","-1","1","600","400","white","gray","3","2","2","16.67500000000003","[24.700000000000728,15.900000000001455,9.399999999999636,16.99999999999818,16.700000000000728,16.600000000000364,16.700000000000728,16.69999999999891,16.700000000000728,16.700000000000728,16.599999999998545,16.399999999999636]","12"
"-1","-1","RDK","41","11453","0.0-1.0-40.0","false","a,l","a","200","true","200","1","180","0.5","2","-1","1","600","400","white","gray","3","2","2","18.1999999999999","[16.600000000000364,17.099999999998545,16.700000000000728,35.399999999999636,14.399999999999636,16.80000000000109,16.69999999999891,16.600000000000364,16.700000000000728,16.700000000000728,16.49999999999818]","11"
"-1","-1","RDK","42","11670","0.0-1.0-41.0","false","a,l","l","200","true","200","1","0","0.5","2","-1","1","600","400","white","gray","3","2","2","16.70000000000012","[19.299999999999272,14.300000000001091,16.700000000000728,16.69999999999891,16.700000000000728,31.200000000000728,2.8000000000010914,15.799999999997453,16.80000000000109,16.69999999999891,16.700000000000728,16.700000000000728]","12"
"-1","-1","RDK","43","11884","0.0-1.0-42.0","false","a,l","l","200","true","200","1","0","0.5","2","-1","1","600","400","white","gray","3","2","2","20.488888888888848","[17.599999999998545,49.29999999999927,17.399999999999636,16.600000000000364,16.700000000000728,16.700000000000728,16.700000000000728,16.69999999999891,16.700000000000728]","9"
"-1","-1","RDK","44","12087","0.0-1.0-43.0","false","a,l","l","200","true","200","1","0","0.5","2","-1","1","600","400","white","gray","3","2","2","16.658333333333303","[16.700000000000728,16.49999999999818,16.700000000000728,16.600000000000364,26,7.300000000001091,16.599999999998545,16.799999999999272,16.700000000000728,16.700000000000728,16.69999999999891,16.600000000000364]","12"
"-1","-1","RDK","45","12304","0.0-1.0-44.0","false","a,l","l","200","true","200","1","0","0.5","2","-1","1","600","400","white","gray","3","2","2","16.69166666666676","[24.600000000000364,15.100000000000364,10.5,16.69999999999891,16.700000000000728,16.700000000000728,16.69999999999891,16.600000000000364,16.80000000000109,16.19999999999891,17.099999999998545,16.600000000002183]","12"
"-1","-1","RDK","46","12521","0.0-1.0-45.0","false","a,l","a","200","true","200","1","180","0.5","2","-1","1","600","400","white","gray","3","2","2","16.658333333333303","[17.400000000001455,16.099999999998545,16.80000000000109,15.799999999997453,17.100000000002183,17.099999999998545,16.700000000000728,16.69999999999891,16.700000000000728,16.600000000000364,16.700000000000728,16.19999999999891]","12"
"-1","-1","RDK","47","12737","0.0-1.0-46.0","false","a,l","a","200","true","200","1","180","0.5","2","-1","1","600","400","white","gray","3","2","2","18.209090909091007","[17.30000000000109,16.299999999999272,16.700000000000728,16.600000000000364,16.69999999999891,36.19999999999891,13.500000000001819,16.99999999999818,16.700000000000728,16.600000000000364,16.700000000000728]","11"
"-1","-1","RDK","48","12955","0.0-1.0-47.0","false","a,l","a","200","true","200","1","180","0.5","2","-1","1","600","400","white","gray","3","2","2","18.209090909090843","[25.5,26.799999999999272,14.399999999999636,16.80000000000109,16.69999999999891,16.700000000000728,16.700000000000728,16.69999999999891,16.600000000000364,16.700000000000728,16.69999999999891]","11"
"-1","-1","RDK","49","13168","0.0-1.0-48.0","false","a,l","a","200","true","200","1","180","0.5","2","-1","1","600","400","white","gray","3","2","2","18.45","[18.200000000000728,16.19999999999891,37.30000000000109,12.800000000001091,18.899999999997817,14.399999999999636,16.700000000000728,16.700000000000728,16.600000000000364,16.69999999999891]","10"
"-1","-1","RDK","50","13371","0.0-1.0-49.0","false","a,l","l","200","true","200","1","0","0.5","2","-1","1","600","400","white","gray","3","2","2","16.666666666666515","[17.19999999999891,16.100000000000364,16.599999999998545,16,17.400000000001455,16.600000000000364,28,4.5,17.5,16.69999999999891,16.600000000000364,16.799999999999272]","12"
"-1","-1","RDK","51","13589","0.0-1.0-50.0","false","a,l","a","200","true","200","1","180","0.5","2","-1","1","600","400","white","gray","3","2","2","18.227272727272727","[18,15.799999999999272,16.50000000000182,42.39999999999782,7,17.00000000000182,16.899999999999636,16.299999999999272,17.200000000000728,16.700000000000728,16.69999999999891]","11"
"-1","-1","RDK","52","13805","0.0-1.0-51.0","false","a,l","l","200","true","200","1","0","0.5","2","-1","1","600","400","white","gray","3","2","2","18.218181818181787","[17.599999999998545,16.200000000000728,16.600000000000364,15.700000000000728,17.69999999999891,38.29999999999927,10.799999999999272,17.5,16.700000000000728,16.700000000000728,16.600000000000364]","11"
"-1","-1","RDK","53","14019","0.0-1.0-52.0","false","a,l","l","200","true","200","1","0","0.5","2","-1","1","600","400","white","gray","3","2","2","18.43999999999978","[17.99999999999818,38.100000000000364,11.600000000000364,16.69999999999891,16.700000000000728,16.700000000000728,16.600000000000364,16.69999999999891,16.700000000000728,16.599999999998545]","10"
"-1","-1","RDK","54","14221","0.0-1.0-53.0","false","a,l","l","200","true","200","1","0","0.5","2","-1","1","600","400","white","gray","3","2","2","16.649999999999938","[17.19999999999891,15.800000000001091,16.69999999999891,16.700000000000728,25.599999999998545,7.5,23.30000000000109,10.100000000000364,16.899999999999636,15.600000000000364,17.600000000000364,16.799999999999272]","12"
"-1","-1","RDK","55","14438","0.0-1.0-54.0","false","a,l","a","200","true","200","1","180","0.5","2","-1","1","600","400","white","gray","3","2","2","18.218181818181787","[17.200000000000728,33.30000000000109,16.399999999999636,16.799999999999272,16.700000000000728,16.69999999999891,16.600000000000364,16.700000000000728,16.599999999998545,16.700000000000728,16.69999999999891]","11"
"-1","-1","RDK","56","14654","0.0-1.0-55.0","false","a,l","a","200","true","200","1","180","0.5","2","-1","1","600","400","white","gray","3","2","2","16.69166666666676","[17.299999999999272,16.200000000000728,16.100000000000364,17.19999999999891,16.900000000001455,16.599999999998545,16.700000000000728,16.600000000000364,16.799999999999272,16.600000000000364,16.700000000000728,16.600000000000364]","12"
"-1","-1","RDK","57","14869","0.0-1.0-56.0","false","a,l","a","200","true","200","1","180","0.5","2","-1","1","600","400","white","gray","3","2","2","18.227272727272727","[17.399999999999636,16.299999999999272,16.600000000000364,16.700000000000728,16.799999999999272,36.5,13.5,16.600000000000364,16.69999999999891,16.700000000000728,16.700000000000728]","11"
"-1","-1","RDK","58","15088","0.0-1.0-57.0","false","a,l","l","200","true","200","1","0","0.5","2","-1","1","600","400","white","gray","3","2","2","18.218181818181787","[25.700000000000728,27.100000000000364,14.199999999998909,16.69999999999891,16.700000000000728,16.700000000000728,15.700000000000728,17.69999999999891,23.600000000000364,8.799999999999272,17.5]","11"
"-1","-1","RDK","59","15305","0.0-1.0-58.0","false","a,l","a","200","true","200","1","180","0.5","2","-1","1","600","400","white","gray","3","2","2","16.69999999999997","[16.399999999999636,17.299999999999272,16.50000000000182,26.599999999998545,6.600000000000364,16.5,17.099999999998545,16.600000000000364,16.80000000000109,16.69999999999891,16.700000000000728,16.600000000000364]","12"
"-1","-1","RDK","60","15519","0.0-1.0-59.0","false","a,l","a","200","true","200","1","180","0.5","2","-1","1","600","400","white","gray","3","2","2","18.439999999999962","[17.900000000001455,16.49999999999818,16,17.30000000000109,16.700000000000728,37.19999999999891,12.699999999998909,16.700000000000728,16.700000000000728,16.69999999999891]","10"
"-1","-1","RDK","61","15723","0.0-1.0-60.0","false","a,l","a","200","true","200","1","180","0.5","2","-1","1","600","400","white","gray","3","2","2","18.181818181818183","[17.399999999999636,15.800000000001091,35.79999999999927,14,16.899999999999636,16.600000000000364,16.700000000000728,16.69999999999891,16.700000000000728,16.700000000000728,16.69999999999891]","11"
"-1","-1","RDK","62","15936","0.0-1.0-61.0","false","a,l","a","200","true","200","1","180","0.5","2","-1","1","600","400","white","gray","3","2","2","16.70000000000012","[17.5,16.200000000000728,16.600000000000364,15.700000000000728,17.600000000000364,31.299999999999272,1.1999999999989086,17.5,15.900000000001455,17.599999999998545,17.299999999999272,16.00000000000182]","12"
"-1","-1","RDK","63","16152","0.0-1.0-62.0","false","a,l","a","200","true","200","1","180","0.5","2","-1","1","600","400","white","gray","3","2","2","16.754545454545553","[22.200000000002547,27.200000000000728,2.2999999999974534,15.700000000002547,16.19999999999709,17.30000000000291,16.69999999999709,16.600000000000364,16.700000000000728,16.600000000000364,16.799999999999272]","11"
"-1","-1","RDK","64","16355","0.0-1.0-63.0","false","a,l","l","200","true","200","1","0","0.5","2","-1","1","600","400","white","gray","3","2","2","16.666666666666668","[16.600000000000364,16.50000000000182,16.799999999999272,16.600000000000364,29.100000000000364,9.799999999999272,11,16.80000000000291,16.69999999999709,16.700000000000728,16.69999999999709,16.700000000000728]","12"
"-1","-1","RDK","65","16572","0.0-1.0-64.0","false","a,l","l","200","true","200","1","0","0.5","2","-1","1","600","400","white","gray","3","2","2","16.683333333333394","[17.700000000004366,15.799999999995634,16.700000000000728,16.80000000000291,16.5,15.799999999999272,26.700000000000728,6.999999999996362,27.900000000005093,6.799999999995634,14.900000000001455,17.599999999998545]","12"
"-1","-1","RDK","66","16788","0.0-1.0-65.0","false","a,l","a","200","true","200","1","180","0.5","2","-1","1","600","400","white","gray","3","2","2","16.691666666666908","[17.30000000000291,16.499999999996362,24,9.100000000002183,16.400000000001455,17,16.69999999999709,16.700000000000728,16.700000000000728,16.700000000000728,16.599999999998545,16.600000000002183]","12"
"-1","-1","RDK","67","17006","0.0-1.0-66.0","false","a,l","l","200","true","200","1","0","0.5","2","-1","1","600","400","white","gray","3","2","2","18.209090909090843","[17.399999999997817,16.200000000000728,16.700000000000728,16.599999999998545,16.599999999998545,35.10000000000218,15,16.599999999998545,16.80000000000291,16.69999999999709,16.600000000002183]","11"
"-1","-1","RDK","68","17222","0.0-1.0-67.0","false","a,l","a","200","true","200","1","180","0.5","2","-1","1","600","400","white","gray","3","2","2","18.200000000000067","[16.200000000000728,48.900000000001455,2.399999999997817,15.799999999999272,16.799999999999272,16.700000000000728,16.700000000000728,16.700000000000728,16.5,16.599999999998545,16.900000000001455]","11"
"-1","-1","RDK","69","17439","0.0-1.0-68.0","false","a,l","a","200","true","200","1","180","0.5","2","-1","1","600","400","white","gray","3","2","2","16.70000000000012","[17.200000000000728,16.299999999999272,16.80000000000291,16.299999999999272,27.5,10.099999999998545,12.700000000000728,16.799999999999272,16.599999999998545,16.700000000000728,16.700000000000728,16.700000000000728]","12"
"-1","-1","RDK","70","17655","0.0-1.0-69.0","false","a,l","a","200","true","200","1","180","0.5","2","-1","1","600","400","white","gray","3","2","2","16.699999999999818","[18,15.700000000000728,16.700000000000728,16.69999999999709,16.600000000002183,16.700000000000728,29.099999999998545,3.2000000000007276,17.600000000002183,16.69999999999709,16.700000000000728,16.69999999999709]","12"
"-1","-1","RDK","71","17871","0.0-1.0-70.0","false","a,l","a","200","true","200","1","180","0.5","2","-1","1","600","400","white","gray","3","2","2","18.145454545454413","[17.900000000001455,40.900000000001455,7.399999999997817,17.5,16.599999999998545,16.700000000000728,16.700000000000728,16.700000000000728,16.599999999998545,19.099999999998545,13.5]","11"
"-1","-1","RDK","72","18087","0.0-1.0-71.0","false","a,l","a","200","true","200","1","180","0.5","2","-1","1","600","400","white","gray","3","2","2","16.799999999999933","[18.400000000001455,16.299999999995634,16.700000000000728,16.600000000002183,16.599999999998545,18,15.400000000001455,16.700000000000728,16.700000000000728,16.69999999999709,16.700000000000728]","11"
"-1","-1","RDK","73","18289","0.0-1.0-72.0","false","a,l","a","200","true","200","1","180","0.5","2","-1","1","600","400","white","gray","3","2","2","18.054545454545654","[15.5,48.400000000001455,3.400000000001455,14.599999999994907,16.700000000000728,16.600000000002183,16.799999999999272,16.700000000000728,15.600000000002183,17.69999999999709,16.600000000002183]","11"
"-1","-1","RDK","74","18505","0.0-1.0-73.0","false","a,l","a","200","true","200","1","180","0.5","2","-1","1","600","400","white","gray","3","2","2","16.691666666666606","[17.19999999999709,16.30000000000291,15.69999999999709,16.700000000000728,27.100000000002183,7.200000000000728,15.999999999996362,17.400000000005093,15.999999999996362,17.299999999999272,16.700000000000728,16.700000000000728]","12"
"-1","-1","RDK","75","18723","0.0-1.0-74.0","false","a,l","a","200","true","200","1","180","0.5","2","-1","1","600","400","white","gray","3","2","2","16.683333333333394","[18.100000000002183,15.5,16.700000000000728,16.599999999998545,16.799999999999272,15.700000000000728,25.700000000000728,7.69999999999709,25.900000000001455,8.30000000000291,15.599999999998545,17.599999999998545]","12"
"-1","-1","RDK","76","18940","0.0-1.0-75.0","false","a,l","a","200","true","200","1","180","0.5","2","-1","1","600","400","white","gray","3","2","2","18.21818181818195","[17.600000000002183,16.399999999997817,35.400000000001455,15.599999999998545,15.400000000001455,16.700000000000728,16.69999999999709,15.600000000002183,17.700000000000728,16.599999999998545,16.700000000000728]","11"
"-1","-1","RDK","77","19154","0.0-1.0-76.0","false","a,l","l","200","true","200","1","0","0.5","2","-1","1","600","400","white","gray","3","2","2","18.45","[18.30000000000291,16.399999999997817,16.399999999997817,16.600000000002183,16.799999999999272,35.80000000000291,14.19999999999709,16.600000000002183,16.69999999999709,16.700000000000728]","10"
"-1","-1","RDK","78","19355","0.0-1.0-77.0","false","a,l","l","200","true","200","1","0","0.5","2","-1","1","600","400","white","gray","3","2","2","18.15454545454552","[16.700000000000728,47,3.5,15.80000000000291,16.69999999999709,16.69999999999709,16.700000000000728,16.5,16.80000000000291,16.599999999998545,16.700000000000728]","11"
"-1","-1","RDK","79","19573","0.0-1.0-78.0","false","a,l","l","200","true","200","1","0","0.5","2","-1","1","600","400","white","gray","3","2","2","16.699999999999818","[17.799999999999272,15.099999999998545,17.400000000001455,16.600000000002183,22.799999999999272,10.5,16.799999999999272,16.599999999998545,16.69999999999709,16.700000000000728,16.700000000000728,16.700000000000728]","12"
"-1","-1","RDK","80","19789","0.0-1.0-79.0","false","a,l","l","200","true","200","1","0","0.5","2","-1","1","600","400","white","gray","3","2","2","16.641666666666726","[17.299999999999272,16.200000000000728,16.80000000000291,16.700000000000728,16.69999999999709,15.700000000000728,27.200000000000728,7,19.900000000001455,13.5,16.799999999999272,15.899999999997817]","12"
"-1","-1","RDK","81","20006","0.0-1.0-80.0","false","a,l","a","200","true","200","1","180","0.5","2","-1","1","600","400","white","gray","3","2","2","17.90909090909091","[15,16.299999999999272,16.599999999998545,32.900000000001455,17,16.900000000001455,16.599999999998545,16.700000000000728,16.700000000000728,16.5,15.799999999999272]","11"
"-1","-1","RDK","82","20221","0.0-1.0-81.0","false","a,l","l","200","true","200","1","0","0.5","2","-1","1","600","400","white","gray","3","2","2","16.708333333333332","[17.5,16.099999999998545,16.799999999999272,16.700000000000728,15.700000000004366,31.399999999997817,2.599999999998545,16.400000000001455,17.200000000000728,16.700000000000728,16.69999999999709,16.700000000000728]","12"
"-1","-1","RDK","83","20440","0.0-1.0-82.0","false","a,l","a","200","true","200","1","180","0.5","2","-1","1","600","400","white","gray","3","2","2","16.691666666666606","[17.799999999995634,26.400000000005093,5.299999999995634,17.5,16.700000000000728,16,17.299999999999272,16.700000000000728,16.700000000000728,15.5,17.799999999999272,16.600000000002183]","12"
"-1","-1","RDK","84","20657","0.0-1.0-83.0","false","a,l","l","200","true","200","1","0","0.5","2","-1","1","600","400","white","gray","3","2","2","16.708333333333332","[17.5,16.100000000002183,16.700000000000728,23.19999999999709,10.100000000002183,16.799999999999272,16.700000000000728,16.69999999999709,16.599999999998545,16.600000000002183,16,17.5]","12"
"-1","-1","RDK","85","20873","0.0-1.0-84.0","false","a,l","l","200","true","200","1","0","0.5","2","-1","1","600","400","white","gray","3","2","2","18.21818181818195","[17.400000000001455,15.5,17.400000000001455,16.69999999999709,36.5,12.600000000002183,17.700000000000728,16.599999999998545,16.700000000000728,16.499999999996362,16.80000000000291]","11"
"-1","-1","RDK","86","21088","0.0-1.0-85.0","false","a,l","a","200","true","200","1","180","0.5","2","-1","1","600","400","white","gray","3","2","2","18.460000000000218","[18,39.79999999999927,9.500000000003638,17.399999999997817,16.700000000000728,16.5,16.799999999999272,16.700000000000728,16.700000000000728,16.5]","10"
"-1","-1","RDK","87","21290","0.0-1.0-86.0","false","a,l","l","200","true","200","1","0","0.5","2","-1","1","600","400","white","gray","3","2","2","16.625","[16.30000000000291,16.299999999995634,16.000000000003638,17.499999999996362,23,10.000000000003638,16.999999999996362,16.80000000000291,16.599999999998545,16.700000000000728,16.700000000000728,16.599999999998545]","12"
"-1","-1","RDK","88","21509","0.0-1.0-87.0","false","a,l","a","200","true","200","1","180","0.5","2","-1","1","600","400","white","gray","3","2","2","16.691666666666606","[18.200000000000728,15.399999999997817,16.700000000000728,16.599999999998545,16.700000000000728,16.700000000000728,30.299999999999272,2.7999999999992724,16.5,17,16.700000000000728,16.700000000000728]","12"
"-1","-1","RDK","89","21721","0.0-1.0-88.0","false","a,l","a","200","true","200","1","180","0.5","2","-1","1","600","400","white","gray","3","2","2","20.48888888888905","[19.100000000002183,55.10000000000218,10.099999999998545,16.799999999999272,16.299999999999272,17,16.700000000000728,16.599999999998545,16.700000000000728]","9"
"-1","-1","RDK","90","21924","0.0-1.0-89.0","false","a,l","l","200","true","200","1","0","0.5","2","-1","1","600","400","white","gray","3","2","2","18.163636363636297","[17.200000000000728,15.899999999997817,16.600000000002183,16.799999999999272,16.100000000002183,45.89999999999782,3.7000000000007276,17.399999999997817,16.900000000001455,16.700000000000728,16.599999999998545]","11"
"-1","-1","RDK","91","22141","0.0-1.0-90.0","false","a,l","l","200","true","200","1","0","0.5","2","-1","1","600","400","white","gray","3","2","2","18.21818181818195","[17.5,38.29999999999927,11.099999999998545,16.700000000000728,16.700000000000728,16.700000000000728,16.700000000000728,16.69999999999709,16.600000000002183,16.700000000000728,16.700000000000728]","11"
"-1","-1","RDK","92","22357","0.0-1.0-91.0","false","a,l","l","200","true","200","1","0","0.5","2","-1","1","600","400","white","gray","3","2","2","16.608333333333274","[17.299999999999272,15.5,17.399999999997817,24.30000000000291,8.899999999997817,16.700000000000728,16.799999999999272,16.700000000000728,16.799999999999272,16.600000000002183,16.599999999998545,15.700000000000728]","12"
"-1","-1","RDK","93","22574","0.0-1.0-92.0","false","a,l","a","200","true","200","1","180","0.5","2","-1","1","600","400","white","gray","3","2","2","16.708333333333332","[17.400000000001455,16.30000000000291,16.69999999999709,16.599999999998545,16.799999999999272,16.600000000002183,24,8.700000000000728,17.19999999999709,16.80000000000291,16.69999999999709,16.700000000000728]","12"
"-1","-1","RDK","94","22788","0.0-1.0-93.0","false","a,l","l","200","true","200","1","0","0.5","2","-1","1","600","400","white","gray","3","2","2","18.470000000000073","[18.799999999999272,37.80000000000291,11.30000000000291,16.799999999999272,16.599999999994907,16.80000000000291,16.599999999998545,16.700000000000728,16.599999999998545,16.700000000000728]","10"
"-1","-1","RDK","95","22991","0.0-1.0-94.0","false","a,l","l","200","true","200","1","0","0.5","2","-1","1","600","400","white","gray","3","2","2","19.970000000000073","[16.599999999998545,16.500000000003638,16.599999999998545,16.600000000002183,56.69999999999709,9.799999999999272,17.000000000003638,16.599999999998545,16.69999999999709,16.600000000002183]","10"
"-1","-1","RDK","96","23205","0.0-1.0-95.0","false","a,l","l","200","true","200","1","0","0.5","2","-1","1","600","400","white","gray","3","2","2","16.78181818181805","[18.099999999994907,28.600000000002183,4.299999999999272,16.80000000000291,16.69999999999709,16.600000000002183,16.700000000000728,16.700000000000728,16.599999999998545,16.700000000000728,16.799999999999272]","11"
"-1","-1","RDK","97","23407","0.0-1.0-96.0","false","a,l","a","200","true","200","1","180","0.5","2","-1","1","600","400","white","gray","3","2","2","16.591666666666544","[17.5,15.69999999999709,16.700000000000728,16.599999999998545,27.000000000003638,6.19999999999709,16.700000000000728,16.700000000000728,16,17.5,16.700000000000728,15.799999999999272]","12"
"-1","-1","RDK","98","23622","0.0-1.0-97.0","false","a,l","l","200","true","200","1","0","0.5","2","-1","1","600","400","white","gray","3","2","2","18.420000000000073","[17.900000000001455,16.200000000000728,16.799999999999272,16.599999999998545,16.69999999999709,16.700000000000728,32.50000000000364,17.499999999996362,16.700000000000728,16.600000000002183]","10"
"-1","-1","RDK","99","23825","0.0-1.0-98.0","false","a,l","l","200","true","200","1","0","0.5","2","-1","1","600","400","white","gray","3","2","2","18.118181818181753","[16.200000000000728,15.700000000000728,47.900000000001455,2.399999999997817,16.700000000000728,17.100000000002183,16.700000000000728,16.599999999994907,16.700000000000728,16.700000000000728,16.599999999998545]","11"
"-1","-1","RDK","100","24041","0.0-1.0-99.0","false","a,l","a","200","true","200","1","180","0.5","2","-1","1","600","400","white","gray","3","2","2","18.209090909090843","[17.400000000001455,16.100000000002183,16.799999999999272,16.299999999999272,36.099999999998545,14.100000000002183,16.799999999999272,16.700000000000728,16.700000000000728,16.599999999994907,16.700000000000728]","11"
"-1","-1","RDK","101","24259","0.0-1.0-100.0","false","a,l","a","200","true","200","1","180","0.5","2","-1","1","600","400","white","gray","3","2","2","16.70000000000012","[26.099999999998545,14.400000000001455,9.599999999998545,16.900000000001455,16.700000000000728,16.599999999998545,16.799999999999272,16.600000000002183,16.700000000000728,16.599999999998545,16.799999999999272,16.600000000002183]","12"
"-1","-1","RDK","102","24473","0.0-1.0-101.0","false","a,l","a","200","true","200","1","180","0.5","2","-1","1","600","400","white","gray","3","2","2","18.200000000000397","[17.80000000000291,16.399999999997817,16.099999999998545,46.900000000001455,3,16.700000000000728,16.700000000000728,16.700000000000728,16.700000000000728,16.599999999998545,16.600000000002183]","11"
"-1","-1","RDK","103","24691","0.0-1.0-102.0","false","a,l","a","200","true","200","1","180","0.5","2","-1","1","600","400","white","gray","3","2","2","18.21818181818162","[17.399999999997817,15.69999999999709,17.30000000000291,16.600000000002183,16.599999999994907,32.40000000000509,17.399999999997817,16.799999999999272,16.799999999999272,16.700000000000728,16.700000000000728]","11"
"-1","-1","RDK","104","24905","0.0-1.0-103.0","false","a,l","l","200","true","200","1","0","0.5","2","-1","1","600","400","white","gray","3","2","2","16.75454545454539","[22.100000000002183,27.5,2.1999999999970896,14.600000000002183,17.700000000000728,16.700000000000728,16.799999999999272,16.599999999994907,16.80000000000291,16.5,16.799999999999272]","11"
"-1","-1","RDK","105","25109","0.0-1.0-104.0","false","a,l","a","200","true","200","1","180","0.5","2","-1","1","600","400","white","gray","3","2","2","18.109090909090643","[16.19999999999709,16.400000000001455,16.700000000000728,16.599999999998545,44.5,4.899999999997817,17.200000000004366,16.799999999999272,16.599999999998545,16.69999999999709,16.600000000002183]","11"
"-1","-1","RDK","106","25324","0.0-1.0-105.0","false","a,l","l","200","true","200","1","0","0.5","2","-1","1","600","400","white","gray","3","2","2","16.649999999999938","[17.19999999999709,15.80000000000291,17.299999999999272,16.700000000000728,16.799999999999272,16.600000000002183,16.200000000000728,17.19999999999709,16.700000000000728,16.700000000000728,16.5,16.099999999998545]","12"
"-1","-1","RDK","107","25541","0.0-1.0-106.0","false","a,l","a","200","true","200","1","180","0.5","2","-1","1","600","400","white","gray","3","2","2","16.691666666666908","[17.30000000000291,16.19999999999709,25.400000000001455,7.400000000001455,17.099999999998545,16.900000000001455,16.69999999999709,16.600000000002183,16.700000000000728,16.700000000000728,16.599999999998545,16.700000000000728]","12"
"-1","-1","RDK","108","25756","0.0-1.0-107.0","false","a,l","a","200","true","200","1","180","0.5","2","-1","1","600","400","white","gray","3","2","2","18.227272727273057","[18.000000000003638,15.700000000000728,16.700000000000728,16.69999999999709,35.400000000001455,14.5,16.799999999999272,16.100000000002183,17.19999999999709,16.700000000000728,16.700000000000728]","11"
"-1","-1","RDK","109","25973","0.0-1.0-108.0","false","a,l","l","200","true","200","1","0","0.5","2","-1","1","600","400","white","gray","3","2","2","16.708333333333332","[17.299999999999272,16.400000000001455,16.700000000000728,16.69999999999709,16.700000000000728,16.600000000002183,16.599999999994907,21.900000000005093,11.19999999999709,17,16.700000000000728,16.700000000000728]","12"
"-1","-1","RDK","110","26192","0.0-1.0-109.0","false","a,l","a","200","true","200","1","180","0.5","2","-1","1","600","400","white","gray","3","2","2","18.209090909090843","[17.299999999999272,16.30000000000291,35.099999999998545,14.900000000001455,16.700000000000728,16.700000000000728,16.599999999998545,16.700000000000728,16.69999999999709,16.700000000000728,16.599999999998545]","11"
"-1","-1","RDK","111","26408","0.0-1.0-110.0","false","a,l","a","200","true","200","1","180","0.5","2","-1","1","600","400","white","gray","3","2","2","18.21818181818195","[17.400000000001455,16.099999999998545,16.799999999999272,36.20000000000073,13.600000000002183,16.799999999999272,16.700000000000728,16.700000000000728,16.700000000000728,16.69999999999709,16.700000000000728]","11"
"-1","-1","RDK","112","26624","0.0-1.0-111.0","false","a,l","a","200","true","200","1","180","0.5","2","-1","1","600","400","white","gray","3","2","2","16.70000000000012","[18.200000000000728,15.499999999996362,16.600000000002183,16.799999999999272,16.600000000002183,15.799999999999272,25.900000000001455,7.899999999997817,29.100000000002183,6.799999999999272,14.400000000001455,16.799999999999272]","12"
"-1","-1","RDK","113","26844","0.0-1.0-112.0","false","a,l","a","200","true","200","1","180","0.5","2","-1","1","600","400","white","gray","3","2","2","16.691666666666606","[17.200000000000728,16.19999999999709,26.30000000000291,7.099999999994907,15.700000000004366,17.69999999999709,16.700000000000728,17.099999999998545,16.200000000000728,16.700000000000728,16.700000000000728,16.700000000000728]","12"
"-1","-1","RDK","114","27059","0.0-1.0-113.0","false","a,l","a","200","true","200","1","180","0.5","2","-1","1","600","400","white","gray","3","2","2","18.199999999999736","[17,16.599999999998545,16.600000000002183,16.599999999998545,16.700000000000728,45.49999999999636,4.100000000002183,16.799999999999272,16.900000000001455,16.700000000000728,16.69999999999709]","11"
"-1","-1","RDK","115","27275","0.0-1.0-114.0","false","a,l","l","200","true","200","1","0","0.5","2","-1","1","600","400","white","gray","3","2","2","18.21818181818162","[27.100000000002183,36.89999999999782,2.2999999999992724,16.30000000000291,17.599999999998545,16.200000000000728,17.19999999999709,16.700000000000728,16.599999999998545,16.700000000000728,16.799999999999272]","11"
"-1","-1","RDK","116","27491","0.0-1.0-115.0","false","a,l","a","200","true","200","1","180","0.5","2","-1","1","600","400","white","gray","3","2","2","16.625","[18,15.799999999999272,16.400000000001455,16.700000000000728,25.400000000001455,7.399999999994179,17.200000000004366,16.799999999999272,16.600000000002183,16.799999999999272,16.599999999998545,15.799999999999272]","12"
"-1","-1","RDK","117","27707","0.0-1.0-116.0","false","a,l","a","200","true","200","1","180","0.5","2","-1","1","600","400","white","gray","3","2","2","16.70000000000012","[17.299999999999272,16.399999999997817,16.5,16.80000000000291,16.69999999999709,15.799999999999272,25.600000000002183,9,18.200000000000728,14.700000000000728,16.799999999999272,16.600000000002183]","12"
"-1","-1","RDK","118","27925","0.0-1.0-117.0","false","a,l","a","200","true","200","1","180","0.5","2","-1","1","600","400","white","gray","3","2","2","18.21818181818195","[17.200000000000728,16.399999999997817,35.30000000000291,14.599999999998545,16.799999999999272,16.700000000000728,15.80000000000291,17.499999999996362,16.799999999999272,16.600000000002183,16.700000000000728]","11"
"-1","-1","RDK","119","28140","0.0-1.0-118.0","false","a,l","a","200","true","200","1","180","0.5","2","-1","1","600","400","white","gray","3","2","2","16.71666666666685","[17.400000000001455,16.200000000000728,16.69999999999709,16.80000000000291,16.69999999999709,23.500000000003638,9.69999999999709,16.799999999999272,16.600000000002183,16.799999999999272,16.600000000002183,16.799999999999272]","12"
"-1","-1","RDK","120","28359","0.0-1.0-119.0","false","a,l","a","200","true","200","1","180","0.5","2","-1","1","600","400","white","gray","3","2","2","18.209090909090843","[25.700000000000728,27.299999999999272,13.80000000000291,16.799999999999272,16.700000000000728,16.69999999999709,16.5,16.899999999997817,19.000000000003638,14.19999999999709,16.700000000000728]","11"
"-1","-1","RDK","121","28575","0.0-1.0-120.0","false","a,l","l","200","true","200","1","0","0.5","2","-1","1","600","400","white","gray","3","2","2","16.683333333333092","[16.999999999996362,16.500000000003638,16.5,26.399999999997817,6.700000000000728,15.900000000001455,17.700000000000728,16.399999999997817,17,16.69999999999709,16.600000000002183,16.799999999999272]","12"
"-1","-1","RDK","122","28792","0.0-1.0-121.0","false","a,l","a","200","true","200","1","180","0.5","2","-1","1","600","400","white","gray","3","2","2","18.209090909090843","[17.299999999999272,16.30000000000291,16.700000000000728,16.700000000000728,16.69999999999709,44.60000000000218,4.5,17.400000000001455,16.799999999999272,16.599999999998545,16.69999999999709]","11"
"-1","-1","RDK","123","29007","0.0-1.0-122.0","false","a,l","l","200","true","200","1","0","0.5","2","-1","1","600","400","white","gray","3","2","2","18.245454545454944","[29.5,28.30000000000291,9,17.19999999999709,16.600000000002183,16.700000000000728,16.599999999998545,16.700000000000728,16.600000000002183,16.69999999999709,16.80000000000291]","11"
"-1","-1","RDK","124","29226","0.0-1.0-123.0","false","a,l","a","200","true","200","1","180","0.5","2","-1","1","600","400","white","gray","3","2","2","16.691666666666908","[17.200000000004366,16.5,16.599999999994907,15.80000000000291,29.099999999998545,4.700000000000728,17,16.799999999999272,16.600000000002183,16.700000000000728,16.599999999998545,16.700000000000728]","12"
"-1","-1","RDK","125","29442","0.0-1.0-124.0","false","a,l","l","200","true","200","1","0","0.5","2","-1","1","600","400","white","gray","3","2","2","16.608333333333274","[17.099999999998545,16.30000000000291,15.799999999999272,17.700000000000728,16.700000000000728,16.69999999999709,29.799999999999272,2.900000000001455,16.5,16.400000000001455,17.69999999999709,15.700000000000728]","12"
"-1","-1","RDK","126","29659","0.0-1.0-125.0","false","a,l","a","200","true","200","1","180","0.5","2","-1","1","600","400","white","gray","3","2","2","18.199999999999736","[25.599999999998545,38.70000000000073,2.400000000001455,16.799999999999272,16.799999999999272,16.700000000000728,16.700000000000728,16.700000000000728,16.499999999996362,16.100000000002183,17.19999999999709]","11"
"-1","-1","RDK","127","29874","0.0-1.0-126.0","false","a,l","l","200","true","200","1","0","0.5","2","-1","1","600","400","white","gray","3","2","2","16.70000000000012","[18.100000000002183,15.599999999998545,16.600000000002183,16.69999999999709,16.100000000002183,16.599999999998545,16.5,17.5,16.600000000002183,16.799999999999272,16.700000000000728,16.599999999998545]","12"
"-1","-1","RDK","128","30090","0.0-1.0-127.0","false","a,l","a","200","true","200","1","180","0.5","2","-1","1","600","400","white","gray","3","2","2","16.71818181818195","[19.200000000000728,16.799999999999272,13.700000000000728,17.399999999997817,16.700000000000728,16.700000000000728,15.899999999997817,17.5,16.500000000003638,16.799999999999272,16.700000000000728]","11"
"-1","-1","RDK","129","30296","0.0-1.0-128.0","false","a,l","l","200","true","200","1","0","0.5","2","-1","1","600","400","white","gray","3","2","2","16.54999999999988","[16.200000000000728,15.999999999996362,17.099999999998545,25.000000000003638,7.400000000001455,17.499999999996362,16.799999999999272,16.700000000000728,16.700000000000728,16.600000000002183,16.69999999999709,15.900000000001455]","12"
"-1","-1","RDK","130","30510","0.0-1.0-129.0","false","a,l","l","200","true","200","1","0","0.5","2","-1","1","600","400","white","gray","3","2","2","18.24545454545461","[17.700000000000728,16.100000000002183,16.799999999999272,16.700000000000728,16.700000000000728,38.99999999999636,10.80000000000291,16.799999999999272,16.700000000000728,16.69999999999709,16.700000000000728]","11"
"-1","-1","RDK","131","30726","0.0-1.0-130.0","false","a,l","l","200","true","200","1","0","0.5","2","-1","1","600","400","white","gray","3","2","2","20.039999999999782","[17.399999999997817,52.70000000000073,13.600000000002183,16.599999999998545,16.799999999999272,16.700000000000728,16.399999999997817,16.900000000001455,16.599999999998545,16.700000000000728]","10"
"-1","-1","RDK","132","30943","0.0-1.0-131.0","false","a,l","l","200","true","200","1","0","0.5","2","-1","1","600","400","white","gray","3","2","2","16.70000000000012","[18.200000000000728,15.399999999997817,16.799999999999272,27.100000000002183,5.19999999999709,17.600000000002183,16.700000000000728,16.600000000002183,16.799999999999272,16.599999999998545,16.700000000000728,16.700000000000728]","12"
"-1","-1","RDK","133","31158","0.0-1.0-132.0","false","a,l","a","200","true","200","1","180","0.5","2","-1","1","600","400","white","gray","3","2","2","16.772727272727273","[17.200000000000728,16.999999999996362,16.700000000000728,16.799999999999272,16.700000000000728,16.700000000000728,25.5,7.700000000000728,20.299999999999272,13.100000000002183,16.799999999999272]","11"
"-1","-1","RDK","134","31361","0.0-1.0-133.0","false","a,l","l","200","true","200","1","0","0.5","2","-1","1","600","400","white","gray","3","2","2","16.583333333333638","[15.80000000000291,16.600000000002183,16.39999999999418,16.700000000000728,21.299999999999272,11.500000000003638,17.399999999997817,16.600000000002183,16.69999999999709,16.600000000002183,16.700000000000728,16.700000000000728]","12"
"-1","-1","RDK","135","31577","0.0-1.0-134.0","false","a,l","l","200","true","200","1","0","0.5","2","-1","1","600","400","white","gray","3","2","2","16.699999999999818","[17.200000000000728,16.299999999999272,16.900000000001455,16.599999999998545,16.700000000000728,16.69999999999709,29.200000000004366,3.899999999997817,16.799999999999272,16.700000000000728,16.69999999999709,16.700000000000728]","12"
"-1","-1","RDK","136","31793","0.0-1.0-135.0","false","a,l","l","200","true","200","1","0","0.5","2","-1","1","600","400","white","gray","3","2","2","18.418181818181687","[25.200000000000728,37.60000000000218,4.799999999999272,16.700000000000728,16.700000000000728,16.599999999998545,16.599999999998545,16.799999999999272,16.700000000000728,30.80000000000291,4.099999999994907]","11"
"-1","-1","RDK","137","32011","0.0-1.0-136.0","false","a,l","a","200","true","200","1","180","0.5","2","-1","1","600","400","white","gray","3","2","2","18.21818181818195","[19.30000000000291,14.299999999999272,16.69999999999709,15.900000000001455,35.5,15.30000000000291,16.399999999997817,17,16.799999999999272,16.5,16.700000000000728]","11"
"-1","-1","RDK","138","32227","0.0-1.0-137.0","false","a,l","l","200","true","200","1","0","0.5","2","-1","1","600","400","white","gray","3","2","2","16.699999999999818","[17.100000000002183,16.5,16.700000000000728,16.69999999999709,16.700000000000728,16.599999999998545,25.700000000000728,6.700000000000728,20.099999999998545,14.19999999999709,16.700000000000728,16.700000000000728]","12"
"-1","-1","RDK","139","32443","0.0-1.0-138.0","false","a,l","l","200","true","200","1","0","0.5","2","-1","1","600","400","white","gray","3","2","2","16.699999999999818","[17.80000000000291,15.799999999999272,16.599999999994907,23.600000000002183,9.700000000004366,16.799999999995634,16.600000000002183,16.799999999999272,16.599999999994907,16.700000000000728,16.700000000000728,16.700000000000728]","12"
"-1","-1","RDK","140","32661","0.0-1.0-139.0","false","a,l","a","200","true","200","1","180","0.5","2","-1","1","600","400","white","gray","3","2","2","18.209090909091174","[17.299999999999272,16.100000000002183,15.799999999999272,17.69999999999709,16.60000000000582,35.89999999999782,14.099999999998545,16.80000000000291,16.599999999998545,16.69999999999709,16.700000000004366]","11"
"-1","-1","RDK","141","32877","0.0-1.0-140.0","false","a,l","l","200","true","200","1","0","0.5","2","-1","1","600","400","white","gray","3","2","2","18.227272727272727","[18.299999999995634,37.500000000007276,11.19999999999709,16.700000000004366,16.599999999998545,16.80000000000291,16.69999999999709,16.599999999998545,16.69999999999709,16.700000000004366,16.69999999999709]","11"
"-1","-1","RDK","142","33094","0.0-1.0-141.0","false","a,l","a","200","true","200","1","180","0.5","2","-1","1","600","400","white","gray","3","2","2","18.209090909091174","[17.10000000000582,16.5,16.59999999999127,44.700000000004366,4.5,17.400000000001455,16.799999999995634,16.69999999999709,16.60000000000582,16.69999999999709,16.700000000004366]","11"
"-1","-1","RDK","143","33311","0.0-1.0-142.0","false","a,l","l","200","true","200","1","0","0.5","2","-1","1","600","400","white","gray","3","2","2","18.209090909091174","[18.200000000004366,15.400000000001455,16.69999999999709,16.60000000000582,16.799999999995634,37.5,11.80000000000291,17.099999999998545,16.799999999995634,16.80000000000291,16.599999999998545]","11"
"-1","-1","RDK","144","33527","0.0-1.0-143.0","false","a,l","l","200","true","200","1","0","0.5","2","-1","1","600","400","white","gray","3","2","2","18.21818181818129","[29.30000000000291,26.199999999989814,11.400000000008731,16.69999999999709,16.69999999999709,16.700000000004366,16.69999999999709,16.700000000004366,16.59999999999127,16.60000000000582,16.799999999995634]","11"
"-1","-1","RDK","145","33748","0.0-1.0-144.0","false","a,l","a","200","true","200","1","180","0.5","2","-1","1","600","400","white","gray","3","2","2","16.650000000000244","[16.80000000000291,16.30000000000291,16.599999999998545,15.69999999999709,17.60000000000582,16.69999999999709,16.799999999995634,16.60000000000582,16.69999999999709,16.700000000004366,16.599999999998545,16.69999999999709]","12"
"-1","-1","RDK","146","33961","0.0-1.0-145.0","false","a,l","a","200","true","200","1","180","0.5","2","-1","1","600","400","white","gray","3","2","2","16.70000000000012","[27.499999999992724,6.500000000007276,16.39999999999418,16.60000000000582,16.69999999999709,16.700000000004366,16.69999999999709,16.599999999998545,16.69999999999709,16.700000000004366,16.599999999998545,16.700000000004366]","12"
"-1","-1","RDK","147","34178","0.0-1.0-146.0","false","a,l","l","200","true","200","1","0","0.5","2","-1","1","600","400","white","gray","3","2","2","18.21818181818195","[18.099999999998545,15.400000000001455,39.19999999999709,11.000000000007276,16.599999999998545,16.599999999998545,16.799999999995634,16.60000000000582,16.700000000004366,16.59999999999127,16.80000000000291]","11"
"-1","-1","RDK","148","34395","0.0-1.0-147.0","false","a,l","a","200","true","200","1","180","0.5","2","-1","1","600","400","white","gray","3","2","2","16.683333333333092","[17.10000000000582,16.39999999999418,16.60000000000582,16.699999999989814,31.30000000000291,2.500000000007276,16.09999999999127,16.700000000004366,16.69999999999709,16.80000000000291,16.599999999998545,16.69999999999709]","12"
"-1","-1","RDK","149","34608","0.0-1.0-148.0","false","a,l","l","200","true","200","1","0","0.5","2","-1","1","600","400","white","gray","3","2","2","16.74545454545428","[26,8.700000000004366,16.099999999998545,16.700000000004366,16.69999999999709,16.599999999998545,16.69999999999709,16.700000000004366,16.69999999999709,16.599999999998545,16.69999999999709]","11"
"-1","-1","RDK","150","34809","0.0-1.0-149.0","false","a,l","a","200","true","200","1","180","0.5","2","-1","1","600","400","white","gray","3","2","2","18.09090909090909","[16.799999999995634,15.400000000001455,17.60000000000582,37.69999999999709,12.200000000004366,16.89999999999418,16.60000000000582,16.69999999999709,16.599999999998545,16.700000000004366,15.799999999995634]","11"
"-1","-1","RDK","151","35028","0.0-1.0-150.0","false","a,l","a","200","true","200","1","180","0.5","2","-1","1","600","400","white","gray","3","2","2","18.200000000000397","[17,16.400000000001455,16.799999999995634,16.700000000004366,16.69999999999709,38,10.80000000000291,17.799999999995634,16.60000000000582,16.799999999995634,16.60000000000582]","11"
"-1","-1","RDK","152","35245","0.0-1.0-151.0","false","a,l","l","200","true","200","1","0","0.5","2","-1","1","600","400","white","gray","3","2","2","18.21818181818195","[17.80000000000291,38.599999999998545,10.599999999998545,16.700000000004366,16.599999999998545,16.80000000000291,16.59999999999127,16.700000000004366,16.80000000000291,16.5,16.69999999999709]","11"
"-1","-1","RDK","153","35461","0.0-1.0-152.0","false","a,l","a","200","true","200","1","180","0.5","2","-1","1","600","400","white","gray","3","2","2","16.70833333333394","[17.400000000001455,16.200000000004366,16.69999999999709,30.400000000001455,2.900000000001455,16.69999999999709,16.700000000004366,16.69999999999709,16.700000000004366,16.69999999999709,16.599999999998545,16.80000000000291]","12"
"-1","-1","RDK","154","35676","0.0-1.0-153.0","false","a,l","a","200","true","200","1","180","0.5","2","-1","1","600","400","white","gray","3","2","2","18.227272727272727","[18.10000000000582,14.999999999992724,17.30000000000291,16.700000000004366,16.69999999999709,35.599999999998545,13.69999999999709,17.299999999995634,16.700000000004366,16.69999999999709,16.700000000004366]","11"
"-1","-1","RDK","155","35895","0.0-1.0-154.0","false","a,l","a","200","true","200","1","180","0.5","2","-1","1","600","400","white","gray","3","2","2","18.209090909091174","[26.19999999999709,27.400000000001455,13.200000000004366,16.799999999995634,16.69999999999709,16.700000000004366,16.599999999998545,16.700000000004366,16.09999999999127,17.200000000004366,16.700000000004366]","11"
"-1","-1","RDK","156","36112","0.0-1.0-155.0","false","a,l","a","200","true","200","1","180","0.5","2","-1","1","600","400","white","gray","3","2","2","16.691666666666304","[17.299999999995634,16.19999999999709,16.60000000000582,16.69999999999709,16.599999999998545,16.80000000000291,16.700000000004366,16.59999999999127,16.700000000004366,16.69999999999709,16.700000000004366,16.69999999999709]","12"
"-1","-1","RDK","157","36328","0.0-1.0-156.0","false","a,l","a","200","true","200","1","180","0.5","2","-1","1","600","400","white","gray","3","2","2","16.70000000000012","[17.400000000001455,16.299999999995634,16.599999999998545,16.700000000004366,16.599999999998545,16.69999999999709,30.10000000000582,2.499999999992724,16.500000000007276,16.59999999999127,17.60000000000582,16.80000000000291]","12"
"-1","-1","RDK","158","36544","0.0-1.0-157.0","false","a,l","l","200","true","200","1","0","0.5","2","-1","1","600","400","white","gray","3","2","2","18.290909090909487","[27.099999999998545,37.60000000000582,2.5,16.299999999995634,16.799999999995634,16.20000000001164,16.999999999992724,16.69999999999709,16.700000000004366,30,4.30000000000291]","11"
"-1","-1","RDK","159","36760","0.0-1.0-158.0","false","a,l","l","200","true","200","1","0","0.5","2","-1","1","600","400","white","gray","3","2","2","16.71666666666715","[18.500000000007276,15.499999999992724,16.40000000000873,16.09999999999127,29.099999999998545,10.60000000000582,10.900000000001455,15.599999999998545,17.69999999999709,16.80000000000291,16.69999999999709,16.700000000004366]","12"
"-1","-1","RDK","160","36979","0.0-1.0-159.0","false","a,l","l","200","true","200","1","0","0.5","2","-1","1","600","400","white","gray","3","2","2","16.691666666666304","[17.299999999995634,16.30000000000291,16.69999999999709,16.700000000004366,16.5,16.69999999999709,32.099999999998545,2.3999999999941792,15.200000000004366,17.099999999998545,16.69999999999709,16.60000000000582]","12"
"-1","-1","RDK","161","37193","0.0-1.0-160.0","false","a,l","a","200","true","200","1","180","0.5","2","-1","1","600","400","white","gray","3","2","2","16.763636363635836","[18.5,15.900000000001455,29.499999999992724,2.8000000000029104,17.60000000000582,16.80000000000291,16.799999999995634,17.900000000001455,15.299999999995634,16.599999999998545,16.69999999999709]","11"
"-1","-1","RDK","162","37395","0.0-1.0-161.0","false","a,l","l","200","true","200","1","0","0.5","2","-1","1","600","400","white","gray","3","2","2","18.109090909091307","[16.099999999998545,16.400000000001455,16.69999999999709,16.69999999999709,16.60000000000582,38.39999999999418,11.000000000007276,17.299999999995634,16.60000000000582,16.69999999999709,16.700000000004366]","11"
"-1","-1","RDK","163","37612","0.0-1.0-162.0","false","a,l","a","200","true","200","1","180","0.5","2","-1","1","600","400","white","gray","3","2","2","18.21818181818195","[25.5,38.80000000000291,2.3999999999941792,16.80000000000291,16.799999999995634,16.700000000004366,16.69999999999709,16.5,16.80000000000291,16.700000000004366,16.69999999999709]","11"
"-1","-1","RDK","164","37828","0.0-1.0-163.0","false","a,l","l","200","true","200","1","0","0.5","2","-1","1","600","400","white","gray","3","2","2","16.616666666666788","[17.19999999999709,16.60000000000582,16.5,16.69999999999709,24.099999999998545,9.19999999999709,16.700000000004366,16.69999999999709,16.700000000004366,16.69999999999709,16.69999999999709,15.60000000000582]","12"
"-1","-1","RDK","165","38046","0.0-1.0-164.0","false","a,l","l","200","true","200","1","0","0.5","2","-1","1","600","400","white","gray","3","2","2","16.691666666666304","[18.09999999999127,15.400000000001455,16.80000000000291,16.599999999998545,16.80000000000291,16.5,24.400000000001455,8.999999999992724,24.80000000000291,7.799999999995634,17.5,16.60000000000582]","12"
"-1","-1","RDK","166","38263","0.0-1.0-165.0","false","a,l","a","200","true","200","1","180","0.5","2","-1","1","600","400","white","gray","3","2","2","18.19090909090896","[17.19999999999709,45.10000000000582,4.399999999994179,16.80000000000291,16.700000000004366,16.69999999999709,16.599999999998545,16.80000000000291,16.599999999998545,16.69999999999709,16.5]","11"
"-1","-1","RDK","167","38479","0.0-1.0-166.0","false","a,l","a","200","true","200","1","180","0.5","2","-1","1","600","400","white","gray","3","2","2","16.70000000000012","[17.5,16,16.900000000001455,16.599999999998545,16.700000000004366,29.89999999999418,2.3000000000029104,17.700000000004366,16.69999999999709,16.599999999998545,16.80000000000291,16.69999999999709]","12"
"-1","-1","RDK","168","38693","0.0-1.0-167.0","false","a,l","l","200","true","200","1","0","0.5","2","-1","1","600","400","white","gray","3","2","2","16.70000000000012","[19.000000000007276,26.999999999992724,4.5,16.400000000001455,16.80000000000291,16.69999999999709,16.60000000000582,16.799999999995634,16.60000000000582,16.69999999999709,16.599999999998545,16.69999999999709]","12"
"-1","-1","RDK","169","38912","0.0-1.0-168.0","false","a,l","l","200","true","200","1","0","0.5","2","-1","1","600","400","white","gray","3","2","2","16.691666666666304","[17.69999999999709,15.999999999992724,16.60000000000582,25.299999999995634,8,16.599999999998545,16.80000000000291,16.700000000004366,16.69999999999709,16.599999999998545,16.80000000000291,16.5]","12"
"-1","-1","RDK","170","39129","0.0-1.0-169.0","false","a,l","l","200","true","200","1","0","0.5","2","-1","1","600","400","white","gray","3","2","2","16.691666666666304","[17.19999999999709,16.400000000001455,16.700000000004366,16.69999999999709,17.099999999998545,22.900000000001455,9,17.59999999999127,16.700000000004366,16.69999999999709,16.700000000004366,16.599999999998545]","12"
"-1","-1","RDK","171","39344","0.0-1.0-170.0","false","a,l","a","200","true","200","1","180","0.5","2","-1","1","600","400","white","gray","3","2","2","16.708333333333332","[20,28.099999999998545,1.5999999999985448,17.400000000001455,16.60000000000582,16.69999999999709,16.900000000001455,16.5,16.299999999995634,16.89999999999418,16.800000000010186,16.69999999999709]","12"
"-1","-1","RDK","172","39560","0.0-1.0-171.0","false","a,l","l","200","true","200","1","0","0.5","2","-1","1","600","400","white","gray","3","2","2","16.736363636363503","[17.59999999999127,16.500000000007276,16.599999999998545,16.5,16.900000000001455,16.700000000004366,16.69999999999709,16.599999999998545,16.69999999999709,16.80000000000291,16.5]","11"
"-1","-1","RDK","173","39764","0.0-1.0-172.0","false","a,l","a","200","true","200","1","180","0.5","2","-1","1","600","400","white","gray","3","2","2","16.666666666667272","[17.40000000000873,15.699999999989814,16.80000000000291,16.700000000004366,16.69999999999709,16.599999999998545,16.60000000000582,20.599999999998545,12.200000000004366,17.299999999995634,16.69999999999709,16.700000000004366]","12"
"-1","-1","RDK","174","39977","0.0-1.0-173.0","false","a,l","l","200","true","200","1","0","0.5","2","-1","1","600","400","white","gray","3","2","2","20.544444444444608","[18.5,55.5,10.19999999999709,17.299999999995634,16.60000000000582,16.700000000004366,16.69999999999709,16.599999999998545,16.80000000000291]","9"
"-1","-1","RDK","175","40179","0.0-1.0-174.0","false","a,l","a","200","true","200","1","180","0.5","2","-1","1","600","400","white","gray","3","2","2","18.12727272727286","[16.19999999999709,16.40000000000873,16.599999999998545,16.69999999999709,16.69999999999709,37.400000000001455,12.80000000000291,16.599999999998545,16.599999999998545,16.69999999999709,16.700000000004366]","11"
"-1","-1","RDK","176","40396","0.0-1.0-175.0","false","a,l","l","200","true","200","1","0","0.5","2","-1","1","600","400","white","gray","3","2","2","18.209090909091174","[26.900000000001455,27.09999999999127,12.10000000000582,17.5,16.60000000000582,16.799999999995634,16.60000000000582,16.69999999999709,16.19999999999709,17.099999999998545,16.700000000004366]","11"
"-1","-1","RDK","177","40613","0.0-1.0-176.0","false","a,l","l","200","true","200","1","0","0.5","2","-1","1","600","400","white","gray","3","2","2","16.66666666666606","[17.199999999989814,16.200000000004366,16.700000000004366,16.69999999999709,23.69999999999709,9.700000000004366,16.599999999998545,16.69999999999709,16.60000000000582,16.900000000001455,16.599999999998545,16.39999999999418]","12"
"-1","-1","RDK","178","40827","0.0-1.0-177.0","false","a,l","a","200","true","200","1","180","0.5","2","-1","1","600","400","white","gray","3","2","2","16.70833333333394","[17.300000000010186,16.499999999992724,16.69999999999709,16.5,16.80000000000291,16.599999999998545,31.30000000000291,2.6999999999970896,16.000000000007276,16.69999999999709,16.69999999999709,16.700000000004366]","12"
"-1","-1","RDK","179","41047","0.0-1.0-178.0","false","a,l","a","200","true","200","1","180","0.5","2","-1","1","600","400","white","gray","3","2","2","18.200000000000397","[25.599999999998545,37.40000000000873,4.299999999995634,16.19999999999709,16.799999999995634,16.60000000000582,16.700000000004366,16.69999999999709,16.599999999998545,16.60000000000582,16.69999999999709]","11"
"-1","-1","RDK","180","41261","0.0-1.0-179.0","false","a,l","a","200","true","200","1","180","0.5","2","-1","1","600","400","white","gray","3","2","2","18.4","[17.69999999999709,16.10000000000582,16.69999999999709,16.80000000000291,35.19999999999709,14.69999999999709,16.80000000000291,16.700000000004366,16.59999999999127,16.700000000004366]","10"
"-1","-1","RDK","181","41463","0.0-1.0-180.0","false","a,l","l","200","true","200","1","0","0.5","2","-1","1","600","400","white","gray","3","2","2","18.172727272727403","[17.299999999995634,15.900000000001455,16.700000000004366,16.69999999999709,16.599999999998545,16.69999999999709,16.60000000000582,32.30000000000291,17.199999999989814,17.30000000000291,16.60000000000582]","11"
"-1","-1","RDK","182","41679","0.0-1.0-181.0","false","a,l","l","200","true","200","1","0","0.5","2","-1","1","600","400","white","gray","3","2","2","16.683333333332484","[17.299999999995634,16.19999999999709,16.60000000000582,27.19999999999709,6.200000000004366,15.89999999999418,17.500000000007276,16.299999999995634,17.099999999998545,16.700000000004366,16.599999999998545,16.59999999999127]","12"
"-1","-1","RDK","183","41897","0.0-1.0-182.0","false","a,l","l","200","true","200","1","0","0.5","2","-1","1","600","400","white","gray","3","2","2","18.209090909091834","[17.300000000010186,16.19999999999709,16.69999999999709,16.700000000004366,16.69999999999709,36.89999999999418,13.000000000007276,16.799999999995634,16.60000000000582,16.799999999995634,16.60000000000582]","11"
"-1","-1","RDK","184","42113","0.0-1.0-183.0","false","a,l","l","200","true","200","1","0","0.5","2","-1","1","600","400","white","gray","3","2","2","18.21818181818195","[17.099999999998545,39.000000000007276,10.89999999999418,16.700000000004366,16.599999999998545,16.69999999999709,16.69999999999709,16.700000000004366,16.69999999999709,16.60000000000582,16.69999999999709]","11"
"-1","-1","RDK","185","42342","0.0-1.0-184.0","false","a,l","a","200","true","200","1","180","0.5","2","-1","1","600","400","white","gray","3","2","2","18.21818181818129","[17.900000000001455,15.799999999995634,16.69999999999709,45.099999999998545,4.000000000007276,17.39999999999418,16.700000000004366,16.69999999999709,16.099999999998545,17.400000000001455,16.599999999998545]","11"
"-1","-1","RDK","186","42544","0.0-1.0-185.0","false","a,l","a","200","true","200","1","180","0.5","2","-1","1","600","400","white","gray","3","2","2","18.389999999999418","[17.30000000000291,16.89999999999418,16.400000000001455,16.60000000000582,16.299999999995634,38.799999999995634,10.900000000001455,17.299999999995634,16.700000000004366,16.69999999999709]","10"
"-1","-1","RDK","187","42746","0.0-1.0-186.0","false","a,l","a","200","true","200","1","180","0.5","2","-1","1","600","400","white","gray","3","2","2","18.145454545454413","[16.700000000004366,16.499999999992724,39.900000000001455,9.10000000000582,17.299999999995634,16.799999999995634,16.60000000000582,15.799999999995634,17.60000000000582,16,17.299999999995634]","11"
"-1","-1","RDK","188","42962","0.0-1.0-187.0","false","a,l","a","200","true","200","1","180","0.5","2","-1","1","600","400","white","gray","3","2","2","16.70000000000012","[17.900000000001455,15.599999999998545,16.799999999995634,16.700000000004366,16.599999999998545,23.5,9.799999999995634,16.800000000010186,16.59999999999127,16.700000000004366,16.80000000000291,16.599999999998545]","12"
"-1","-1","RDK","189","43178","0.0-1.0-188.0","false","a,l","l","200","true","200","1","0","0.5","2","-1","1","600","400","white","gray","3","2","2","18.4","[18.400000000001455,39.19999999999709,9.5,16.69999999999709,16.80000000000291,16.700000000004366,16.19999999999709,17,16.700000000004366,16.799999999995634]","10"
"-1","-1","RDK","190","43380","0.0-1.0-189.0","false","a,l","a","200","true","200","1","180","0.5","2","-1","1","600","400","white","gray","3","2","2","16.600000000000364","[16.000000000007276,16.400000000001455,16.69999999999709,16.69999999999709,25.700000000004366,7.600000000005821,25.29999999998836,7.5,17.10000000000582,16.80000000000291,16.69999999999709,16.69999999999709]","12"
"-1","-1","RDK","191","43597","0.0-1.0-190.0","false","a,l","a","200","true","200","1","180","0.5","2","-1","1","600","400","white","gray","3","2","2","16.691666666666304","[24.30000000000291,23.099999999998545,2.6999999999970896,16.700000000004366,16.80000000000291,15.999999999992724,17.400000000001455,16.700000000004366,16.599999999998545,16.5,16.69999999999709,16.799999999995634]","12"
"-1","-1","RDK","192","43819","0.0-1.0-191.0","false","a,l","l","200","true","200","1","0","0.5","2","-1","1","600","400","white","gray","3","2","2","18.836363636364034","[19.200000000004366,14.30000000000291,16.599999999998545,37.5,12.599999999998545,16.69999999999709,16.60000000000582,16.799999999995634,16.60000000000582,16.69999999999709,23.599999999998545]","11"
"-1","-1","RDK","193","44031","0.0-1.0-192.0","false","a,l","l","200","true","200","1","0","0.5","2","-1","1","600","400","white","gray","3","2","2","16.70000000000012","[17.700000000004366,16.299999999995634,16.69999999999709,16.700000000004366,16.200000000004366,17.099999999998545,23.89999999999418,9.10000000000582,16.999999999992724,16.700000000004366,16.599999999998545,16.400000000001455]","12"
"-1","-1","RDK","194","44248","0.0-1.0-193.0","false","a,l","l","200","true","200","1","0","0.5","2","-1","1","600","400","white","gray","3","2","2","18.21818181818195","[16.5,39.69999999999709,10.80000000000291,16.700000000004366,16.599999999998545,16.80000000000291,16.5,16.799999999995634,16.099999999998545,17.30000000000291,16.599999999998545]","11"
"-1","-1","RDK","195","44465","0.0-1.0-194.0","false","a,l","l","200","true","200","1","0","0.5","2","-1","1","600","400","white","gray","3","2","2","18.209090909090513","[17.69999999999709,15.80000000000291,16.799999999995634,43.599999999998545,6.30000000000291,16.700000000004366,16.799999999995634,16.60000000000582,16.69999999999709,16.099999999998545,17.19999999999709]","11"
"-1","-1","RDK","196","44679","0.0-1.0-195.0","false","a,l","a","200","true","200","1","180","0.5","2","-1","1","600","400","white","gray","3","2","2","19.91999999999971","[17.19999999999709,16.099999999998545,16.80000000000291,16.700000000004366,16.69999999999709,52.799999999995634,13.799999999995634,16.800000000010186,16.59999999999127,15.700000000004366]","10"
"-1","-1","RDK","197","44898","0.0-1.0-196.0","false","a,l","l","200","true","200","1","0","0.5","2","-1","1","600","400","white","gray","3","2","2","18.209090909091174","[17.30000000000291,42.299999999995634,7.200000000004366,16.799999999995634,16.69999999999709,16.80000000000291,16.500000000007276,16.499999999992724,16.900000000001455,16.499999999992724,16.800000000010186]","11"
"-1","-1","RDK","198","45112","0.0-1.0-197.0","false","a,l","l","200","true","200","1","0","0.5","2","-1","1","600","400","white","gray","3","2","2","16.71818181818195","[18.30000000000291,15.39999999999418,16.80000000000291,15.900000000001455,24.30000000000291,8.999999999992724,17.500000000007276,16.69999999999709,16.599999999998545,16.900000000001455,16.5]","11"
"-1","-1","RDK","199","45314","0.0-1.0-198.0","false","a,l","a","200","true","200","1","180","0.5","2","-1","1","600","400","white","gray","3","2","2","18.18181818181752","[20.099999999998545,38.39999999999418,8,16.599999999998545,16.80000000000291,16.700000000004366,16.69999999999709,16.599999999998545,16.200000000004366,16.999999999992724,16.900000000001455]","11"
"-1","-1","RDK","200","45532","0.0-1.0-199.0","false","a,l","l","200","true","200","1","0","0.5","2","-1","1","600","400","white","gray","3","2","2","16.70000000000012","[17.299999999995634,16.200000000004366,16.799999999995634,16.700000000004366,20.400000000001455,12.099999999998545,17.499999999992724,16.700000000004366,16.69999999999709,16.700000000004366,16.599999999998545,16.700000000004366]","12"
