rt,key_press,trial_type,trial_index,time_elapsed,internal_node_id,correct,choices,correct_choice,trial_duration,response_ends_trial,number_of_dots,number_of_sets,coherent_direction,coherence,dot_radius,dot_life,move_distance,aperture_width,aperture_height,dot_color,background_color,RDK_type,aperture_type,reinsert_type,frame_rate,frame_rate_array,number_of_frames,
956,32,text,0,957,0.0-0.0,,,,,,,,,,,,,,,,,,,,,,,chrome
-1,-1,RDK,1,2163,0.0-1.0-0.0,FALSE,"a,l",l,200,TRUE,200,1,0,0.5,2,-1,1,600,400,white,gray,3,2,2,15.92125,"[10.4350000000004,13.3149999999996,16.820000000000164,17.449999999999818,15.545000000000528,17.934999999999945,15.614999999999782,16.61499999999978,16.690000000000055,16.730000000000018,16.86999999999989,17.034999999999854]",12,
-1,-1,RDK,2,2373,0.0-1.0-1.0,FALSE,"a,l",l,200,TRUE,200,1,0,0.5,2,-1,1,600,400,white,gray,3,2,2,16.71416667,"[17.54000000000042,16.634999999999764,16.50500000000011,16.795000000000073,16.730000000000018,16.98999999999978,16.795000000000073,16.24499999999989,17.754999999999654,17.045000000000073,15.684999999999945,15.850000000000364]",12,
-1,-1,RDK,3,2589,0.0-1.0-2.0,FALSE,"a,l",a,200,TRUE,200,1,180,0.5,2,-1,1,600,400,white,gray,3,2,2,16.72375,"[17.125,16.6550000000002,16.965000000000146,16.654999999999745,16.375,16.770000000000437,16.514999999999873,16.730000000000018,16.74499999999989,17.61999999999989,15.795000000000073,16.734999999999673]",12,
-1,-1,RDK,4,2806,0.0-1.0-3.0,FALSE,"a,l",l,200,TRUE,200,1,0,0.5,2,-1,1,600,400,white,gray,3,2,2,16.69,"[16.919999999999618,16.490000000000236,16.754999999999654,16.745000000000346,16.815000000000055,17.234999999999673,16.115000000000236,16.49499999999989,16.565000000000055,16.789999999999964,16.77500000000009,16.579999999999927]",12,
-1,-1,RDK,5,3021,0.0-1.0-4.0,FALSE,"a,l",l,200,TRUE,200,1,0,0.5,2,-1,1,600,400,white,gray,3,2,2,16.68291667,"[17.609999999999673,15.864999999999782,16.99000000000069,16.539999999999964,16.519999999999527,16.715000000000146,17.945000000000164,15.434999999999945,16.674999999999727,17.809999999999945,15.525000000000546,16.5649999999996]",12,
-1,-1,RDK,6,3238,0.0-1.0-5.0,FALSE,"a,l",a,200,TRUE,200,1,180,0.5,2,-1,1,600,400,white,gray,3,2,2,16.71083333,"[17.385000000000673,17.099999999999454,16.085000000000036,17.58500000000049,15.549999999999727,16.615000000000236,17.11499999999978,16.149999999999636,16.795000000000073,17.445000000000164,15.840000000000146,16.86499999999978]",12,
-1,-1,RDK,7,3456,0.0-1.0-6.0,FALSE,"a,l",a,200,TRUE,200,1,180,0.5,2,-1,1,600,400,white,gray,3,2,2,16.70041667,"[17.049999999999727,16.679999999999836,16.59999999999991,16.690000000000055,17.610000000000127,16.490000000000236,15.920000000000073,16.67999999999938,16.585000000000036,16.704999999999927,16.75,16.645000000000437]",12,
-1,-1,RDK,8,3672,0.0-1.0-7.0,FALSE,"a,l",l,200,TRUE,200,1,0,0.5,2,-1,1,600,400,white,gray,3,2,2,16.71083333,"[17.829999999999927,15.875,16.715000000000146,16.6200000000008,16.764999999999418,16.609999999999673,16.824999999999818,16.76000000000022,17.18499999999949,16.080000000000837,16.734999999999673,16.529999999999745]",12,
-1,-1,RDK,9,3888,0.0-1.0-8.0,FALSE,"a,l",a,200,TRUE,200,1,180,0.5,2,-1,1,600,400,white,gray,3,2,2,16.70590909,"[17.30999999999949,16.279999999999745,16.645000000000437,16.81500000000051,16.474999999999454,16.93000000000029,16.520000000000437,16.75,16.854999999999563,16.350000000000364,16.834999999999127]",11,
-1,-1,RDK,10,4090,0.0-1.0-9.0,FALSE,"a,l",l,200,TRUE,200,1,0,0.5,2,-1,1,600,400,white,gray,3,2,2,16.39666667,"[13.210000000000946,16.669999999999163,17.344999999999345,16.205000000000837,16.75999999999931,16.43000000000029,17.00500000000011,16.355000000000473,16.74499999999898,16.88500000000022,16.300000000000182,16.850000000000364]",12,
-1,-1,RDK,11,4306,0.0-1.0-10.0,FALSE,"a,l",l,200,TRUE,200,1,0,0.5,2,-1,1,600,400,white,gray,3,2,2,16.68583333,"[16.99499999999989,16.654999999999745,16.850000000000364,16.36500000000069,16.74499999999989,16.609999999999673,16.899999999999636,17.274999999999636,15.980000000001382,17.30499999999938,16.900000000000546,15.649999999999636]",12,
-1,-1,RDK,12,4523,0.0-1.0-11.0,FALSE,"a,l",a,200,TRUE,200,1,180,0.5,2,-1,1,600,400,white,gray,3,2,2,16.72416667,"[17.36499999999978,16.275000000000546,17.284999999999854,16.099999999999454,17.44000000000051,16.38500000000022,16.24999999999909,16.62500000000091,16.7549999999992,16.75,16.704999999999927,16.75500000000011]",12,
-1,-1,RDK,13,4738,0.0-1.0-12.0,FALSE,"a,l",l,200,TRUE,200,1,0,0.5,2,-1,1,600,400,white,gray,3,2,2,16.73166667,"[17.38000000000011,16.275000000000546,16.710000000000036,16.5,16.654999999999745,17.454999999999927,15.954999999999927,16.80000000000109,16.649999999998727,16.5600000000004,16.68000000000029,17.159999999999854]",12,
-1,-1,RDK,14,4957,0.0-1.0-13.0,FALSE,"a,l",a,200,TRUE,200,1,180,0.5,2,-1,1,600,400,white,gray,3,2,2,16.67791667,"[22.295000000000073,11.055000000000291,16.709999999999127,16.69000000000051,17.375,16.045000000000073,16.69499999999971,16.975000000000364,16.220000000000255,17.05999999999949,16.605000000000473,16.409999999999854]",12,
-1,-1,RDK,15,5173,0.0-1.0-14.0,FALSE,"a,l",l,200,TRUE,200,1,0,0.5,2,-1,1,600,400,white,gray,3,2,2,16.71875,"[17.00500000000011,16.474999999999454,16.840000000001055,16.424999999999272,16.81500000000051,16.609999999999673,16.674999999999272,16.69500000000062,16.710000000000036,16.604999999999563,16.800000000000182,16.970000000000255]",12,
-1,-1,RDK,16,5389,0.0-1.0-15.0,FALSE,"a,l",l,200,TRUE,200,1,0,0.5,2,-1,1,600,400,white,gray,3,2,2,16.58833333,"[15.789999999999964,16.524999999999636,16.724999999999454,16.670000000000982,16.639999999999418,17.50500000000011,16.25,16.38000000000011,16.664999999999964,16.61999999999989,16.63000000000011,16.659999999999854]",12,
-1,-1,RDK,17,5607,0.0-1.0-16.0,FALSE,"a,l",a,200,TRUE,200,1,180,0.5,2,-1,1,600,400,white,gray,3,2,2,16.705,"[18.024999999999636,15.570000000000618,16.86499999999978,16.639999999999418,16.61999999999989,16.795000000000073,16.720000000000255,17.109999999999673,16.07000000000062,16.86499999999978,16.670000000000073,16.50999999999931]",12,
-1,-1,RDK,18,5823,0.0-1.0-17.0,FALSE,"a,l",l,200,TRUE,200,1,0,0.5,2,-1,1,600,400,white,gray,3,2,2,16.6975,"[16.889999999999418,17.100000000000364,16.19500000000062,17.55499999999938,15.699999999999818,16.75500000000011,16.704999999999927,16.650000000000546,16.579999999999927,16.775000000000546,16.63000000000011,16.834999999999127]",12,
-1,-1,RDK,19,6039,0.0-1.0-18.0,FALSE,"a,l",a,200,TRUE,200,1,180,0.5,2,-1,1,600,400,white,gray,3,2,2,16.59708333,"[15.845000000001164,16.50999999999931,16.894999999999527,16.3700000000008,16.849999999999454,16.609999999999673,16.765000000000327,16.6850000000004,16.715000000000146,16.734999999999673,16.63500000000022,16.549999999999272]",12,
-1,-1,RDK,20,6257,0.0-1.0-19.0,FALSE,"a,l",a,200,TRUE,200,1,180,0.5,2,-1,1,600,400,white,gray,3,2,2,16.705,"[17.794999999999163,15.819999999999709,16.770000000000437,16.6200000000008,16.725000000000364,16.69999999999891,16.640000000000327,16.574999999999818,16.44000000000051,17.0649999999996,16.585000000000036,16.724999999999454]",12,
-1,-1,RDK,21,6474,0.0-1.0-20.0,FALSE,"a,l",a,200,TRUE,200,1,180,0.5,2,-1,1,600,400,white,gray,3,2,2,16.72833333,"[17.199999999999818,16.389999999999418,16.914999999999964,16.454999999999927,16.899999999999636,17.540000000000873,15.765000000000327,16.44499999999971,16.849999999999454,16.625,16.80500000000029,16.849999999999454]",12,
-1,-1,RDK,22,6690,0.0-1.0-21.0,FALSE,"a,l",l,200,TRUE,200,1,0,0.5,2,-1,1,600,400,white,gray,3,2,2,16.69583333,"[17.05499999999938,16.63500000000022,16.61499999999978,16.655000000000655,16.660000000000764,16.81499999999869,16.700000000000728,17.625,15.61999999999989,16.795000000000073,16.639999999999418,16.535000000000764]",12,
-1,-1,RDK,23,6907,0.0-1.0-22.0,FALSE,"a,l",l,200,TRUE,200,1,0,0.5,2,-1,1,600,400,white,gray,3,2,2,16.7,"[17.100000000000364,16.799999999999272,16.69499999999971,16.4350000000004,16.700000000000728,16.649999999998727,16.590000000001055,16.959999999999127,17.300000000000182,15.890000000000327,16.675000000000182,16.605000000000473]",12,
-1,-1,RDK,24,7123,0.0-1.0-23.0,FALSE,"a,l",l,200,TRUE,200,1,0,0.5,2,-1,1,600,400,white,gray,3,2,2,16.70625,"[17.11999999999989,16.5649999999996,16.960000000000036,16.205000000000837,17.089999999999236,16.49499999999989,16.68500000000131,16.599999999999454,16.5649999999996,17.300000000000182,16.17999999999938,16.710000000000036]",12,
-1,-1,RDK,25,7340,0.0-1.0-24.0,FALSE,"a,l",l,200,TRUE,200,1,0,0.5,2,-1,1,600,400,white,gray,3,2,2,16.63333333,"[16.300000000000182,16.5600000000004,16.639999999999418,16.770000000000437,16.529999999999745,17.604999999999563,15.87500000000091,17.829999999999927,15.704999999999927,16.49999999999909,16.69500000000062,16.590000000001055]",12,
-1,-1,RDK,26,7557,0.0-1.0-25.0,FALSE,"a,l",a,200,TRUE,200,1,180,0.5,2,-1,1,600,400,white,gray,3,2,2,16.69583333,"[16.945000000001528,17.18499999999949,16.329999999999927,16.49999999999909,16.635000000001128,16.8199999999988,16.69500000000062,16.545000000000073,16.715000000000146,16.88000000000011,16.699999999999818,16.399999999999636]",12,
-1,-1,RDK,27,7773,0.0-1.0-26.0,FALSE,"a,l",a,200,TRUE,200,1,180,0.5,2,-1,1,600,400,white,gray,3,2,2,16.70416667,"[17.104999999999563,16.50500000000102,17.30999999999949,16.090000000000146,17.26000000000022,16.174999999999272,16.625,16.545000000000073,17.210000000000946,16.204999999999927,16.779999999998836,16.640000000001237]",12,
-1,-1,RDK,28,7989,0.0-1.0-27.0,FALSE,"a,l",a,200,TRUE,200,1,180,0.5,2,-1,1,600,400,white,gray,3,2,2,16.68833333,"[17.020000000000437,16.54500000000189,16.704999999999927,16.669999999998254,16.905000000000655,17.039999999999054,16.18000000000029,16.585000000000946,16.854999999999563,16.61499999999978,16.80500000000029,16.334999999999127]",12,
-1,-1,RDK,29,8207,0.0-1.0-28.0,FALSE,"a,l",a,200,TRUE,200,1,180,0.5,2,-1,1,600,400,white,gray,3,2,2,16.70833333,"[17.804999999998472,16.215000000001965,16.329999999999927,16.734999999998763,16.735000000000582,16.795000000000073,16.61999999999898,16.965000000000146,17.085000000000946,16.019999999998618,16.55500000000029,16.640000000001237]",12,
-1,-1,RDK,30,8423,0.0-1.0-29.0,FALSE,"a,l",l,200,TRUE,200,1,0,0.5,2,-1,1,600,400,white,gray,3,2,2,16.69541667,"[17.1150000000016,16.44499999999971,16.920000000000073,16.36499999999978,17.030000000000655,16.539999999999054,16.665000000000873,17.43999999999869,16.520000000000437,16.090000000000146,16.63000000000102,16.584999999999127]",12,
-1,-1,RDK,31,8641,0.0-1.0-30.0,FALSE,"a,l",l,200,TRUE,200,1,0,0.5,2,-1,1,600,400,white,gray,3,2,2,16.69291667,"[17.020000000000437,16.545000000000073,16.74499999999898,16.62000000000262,16.804999999998472,16.719999999999345,16.61499999999978,16.845000000001164,16.399999999999636,16.61499999999978,16.710000000000946,16.674999999999272]",12,
-1,-1,RDK,32,8857,0.0-1.0-31.0,FALSE,"a,l",l,200,TRUE,200,1,0,0.5,2,-1,1,600,400,white,gray,3,2,2,16.70166667,"[17.030000000000655,16.73999999999978,16.68499999999949,16.610000000000582,16.770000000000437,16.56999999999971,16.7450000000008,16.6399999999976,16.62000000000262,17.31999999999971,16.50499999999738,16.18500000000131]",12,
-1,-1,RDK,33,9073,0.0-1.0-32.0,FALSE,"a,l",l,200,TRUE,200,1,0,0.5,2,-1,1,600,400,white,gray,3,2,2,16.67583333,"[16.895000000000437,16.519999999998618,16.710000000002765,16.419999999998254,17.024999999999636,16.55500000000029,16.605000000001382,16.724999999998545,16.67500000000109,16.719999999999345,16.55999999999949,16.700000000000728]",12,
-1,-1,RDK,34,9291,0.0-1.0-33.0,FALSE,"a,l",a,200,TRUE,200,1,180,0.5,2,-1,1,600,400,white,gray,3,2,2,16.70833333,"[16.9900000000016,17.0149999999976,16.329999999999927,16.645000000000437,16.710000000000946,16.645000000000437,16.674999999999272,16.979999999999563,16.56000000000131,16.659999999999854,16.56999999999971,16.720000000001164]",12,
-1,-1,RDK,35,9507,0.0-1.0-34.0,FALSE,"a,l",a,200,TRUE,200,1,180,0.5,2,-1,1,600,400,white,gray,3,2,2,16.7,"[17.05500000000029,16.520000000000437,16.68499999999949,16.73999999999978,16.679999999998472,16.730000000001382,16.730000000001382,16.5049999999992,16.860000000000582,16.664999999999054,16.595000000001164,16.6349999999984]",12,
-1,-1,RDK,36,9724,0.0-1.0-35.0,FALSE,"a,l",a,200,TRUE,200,1,180,0.5,2,-1,1,600,400,white,gray,3,2,2,16.6875,"[17.109999999998763,16.570000000001528,16.710000000000946,16.420000000000073,16.804999999998472,16.854999999999563,16.584999999999127,16.610000000000582,16.68500000000131,16.715000000000146,16.69499999999971,16.4900000000016]",12,
-1,-1,RDK,37,9941,0.0-1.0-36.0,FALSE,"a,l",a,200,TRUE,200,1,180,0.5,2,-1,1,600,400,white,gray,3,2,2,16.70375,"[17.06999999999789,16.700000000000728,16.590000000000146,16.61499999999978,16.840000000000146,16.454999999999927,16.655000000000655,17.86999999999898,15.704999999999927,16.645000000000437,16.55999999999949,16.7400000000016]",12,
-1,-1,RDK,38,10158,0.0-1.0-37.0,FALSE,"a,l",a,200,TRUE,200,1,180,0.5,2,-1,1,600,400,white,gray,3,2,2,16.68666667,"[16.94000000000051,16.710000000000946,16.665000000000873,16.709999999999127,16.49499999999898,16.655000000000655,16.784999999999854,16.604999999999563,17.350000000000364,16.420000000000073,16.36499999999978,16.540000000000873]",12,
-1,-1,RDK,39,10373,0.0-1.0-38.0,FALSE,"a,l",a,200,TRUE,200,1,180,0.5,2,-1,1,600,400,white,gray,3,2,2,16.68666667,"[17.034999999999854,16.645000000000437,16.625,16.639999999999418,16.905000000000655,16.48999999999978,16.590000000000146,16.68499999999949,16.63500000000022,16.670000000000073,16.764999999999418,16.55500000000029]",12,
-1,-1,RDK,40,10592,0.0-1.0-39.0,FALSE,"a,l",a,200,TRUE,200,1,180,0.5,2,-1,1,600,400,white,gray,3,2,2,16.63416667,"[16.274999999999636,16.570000000001528,16.68999999999869,16.715000000000146,16.6150000000016,16.674999999999272,17.729999999999563,15.704999999999927,16.710000000000946,16.609999999998763,16.670000000000073,16.645000000000437]",12,
-1,-1,RDK,41,10808,0.0-1.0-40.0,FALSE,"a,l",a,200,TRUE,200,1,180,0.5,2,-1,1,600,400,white,gray,3,2,2,16.7075,"[17.024999999999636,16.670000000000073,16.855000000001382,16.539999999999054,16.604999999999563,17.655000000000655,15.670000000000073,16.795000000000073,16.714999999998327,16.695000000001528,16.585000000000946,16.679999999998472]",12,
-1,-1,RDK,42,11023,0.0-1.0-41.0,FALSE,"a,l",l,200,TRUE,200,1,0,0.5,2,-1,1,600,400,white,gray,3,2,2,16.68818182,"[16.890000000001237,16.55500000000029,16.81499999999869,17.5,15.735000000000582,16.80500000000029,16.56999999999971,16.68499999999949,16.68500000000131,16.649999999999636,16.679999999998472]",11,
-1,-1,RDK,43,11225,0.0-1.0-42.0,FALSE,"a,l",l,200,TRUE,200,1,0,0.5,2,-1,1,600,400,white,gray,3,2,2,16.54583333,"[15.56499999999869,16.270000000000437,16.724999999998545,16.63500000000022,16.584999999999127,16.915000000000873,16.93000000000029,17.36499999999978,15.694999999999709,16.780000000000655,16.44999999999891,16.635000000002037]",12,
-1,-1,RDK,44,11439,0.0-1.0-43.0,FALSE,"a,l",l,200,TRUE,200,1,0,0.5,2,-1,1,600,400,white,gray,3,2,2,16.70590909,"[16.905000000002474,17.359999999998763,15.864999999999782,17.50500000000102,15.904999999998836,16.670000000000073,16.68500000000131,16.739999999997963,16.6200000000008,16.710000000000946,16.799999999999272]",11,
-1,-1,RDK,45,11642,0.0-1.0-44.0,FALSE,"a,l",l,200,TRUE,200,1,0,0.5,2,-1,1,600,400,white,gray,3,2,2,16.56666667,"[15.784999999999854,16.13500000000022,16.894999999998618,16.534999999999854,17.625,15.774999999999636,16.735000000000582,17.530000000000655,15.704999999999927,16.81500000000051,16.544999999998254,16.720000000001164]",12,
-1,-1,RDK,46,11859,0.0-1.0-45.0,FALSE,"a,l",a,200,TRUE,200,1,180,0.5,2,-1,1,600,400,white,gray,3,2,2,16.70166667,"[16.955000000001746,16.644999999998618,16.7450000000008,16.604999999999563,16.645000000000437,16.790000000000873,16.6349999999984,16.590000000001965,17.594999999999345,15.905000000000655,16.62499999999818,16.68500000000131]",12,
-1,-1,RDK,47,12075,0.0-1.0-46.0,FALSE,"a,l",l,200,TRUE,200,1,0,0.5,2,-1,1,600,400,white,gray,3,2,2,16.70916667,"[17.014999999999418,16.770000000000437,16.51000000000022,16.579999999999927,16.88500000000022,16.610000000000582,16.790000000000873,16.465000000000146,16.719999999999345,16.7549999999992,17.045000000000073,16.36499999999978]",12,
-1,-1,RDK,48,12291,0.0-1.0-47.0,FALSE,"a,l",l,200,TRUE,200,1,0,0.5,2,-1,1,600,400,white,gray,3,2,2,16.60291667,"[15.985000000000582,18.26000000000022,15.19000000000051,16.644999999998618,16.285000000001673,17.544999999998254,16.06500000000051,17.920000000000073,15.5,16.57499999999891,17.29500000000189,15.969999999999345]",12,
-1,-1,RDK,49,12509,0.0-1.0-48.0,FALSE,"a,l",l,200,TRUE,200,1,0,0.5,2,-1,1,600,400,white,gray,3,2,2,16.70375,"[17.784999999999854,16.12499999999818,17.670000000000073,15.5,16.715000000000146,16.76000000000022,16.5,16.659999999999854,17.525000000001455,16.029999999998836,16.649999999999636,16.525000000001455]",12,
-1,-1,RDK,50,12725,0.0-1.0-49.0,FALSE,"a,l",a,200,TRUE,200,1,180,0.5,2,-1,1,600,400,white,gray,3,2,2,16.69333333,"[17.00500000000102,16.55500000000029,16.769999999998618,16.514999999999418,17.010000000002037,16.669999999998254,16.520000000000437,16.664999999999054,16.80500000000029,16.640000000001237,16.48999999999978,16.67500000000109]",12,
-1,-1,RDK,51,12942,0.0-1.0-50.0,FALSE,"a,l",a,200,TRUE,200,1,180,0.5,2,-1,1,600,400,white,gray,3,2,2,16.69666667,"[17.1200000000008,16.454999999999927,16.69000000000051,16.670000000000073,16.679999999998472,16.62500000000182,16.715000000000146,16.795000000000073,16.469999999999345,17.590000000000146,15.774999999999636,16.775000000001455]",12,
-1,-1,RDK,52,13158,0.0-1.0-51.0,FALSE,"a,l",a,200,TRUE,200,1,180,0.5,2,-1,1,600,400,white,gray,3,2,2,16.69958333,"[16.920000000000073,17.039999999999054,17.18000000000029,15.890000000001237,16.600000000000364,16.764999999999418,16.7599999999984,16.54500000000189,17.57499999999891,15.820000000001528,16.7599999999984,16.539999999999054]",12,
-1,-1,RDK,53,13375,0.0-1.0-52.0,FALSE,"a,l",l,200,TRUE,200,1,0,0.5,2,-1,1,600,400,white,gray,3,2,2,16.71708333,"[18.039999999999054,15.545000000000073,16.710000000000946,17.644999999998618,16.320000000001528,16.394999999998618,16.389999999999418,16.67500000000109,16.774999999999636,16.715000000000146,16.954999999999927,16.43999999999869]",12,
-1,-1,RDK,54,13592,0.0-1.0-53.0,FALSE,"a,l",l,200,TRUE,200,1,0,0.5,2,-1,1,600,400,white,gray,3,2,2,16.65,"[16.4950000000008,16.475000000000364,16.829999999999927,16.585000000000946,16.61999999999898,16.82499999999891,16.604999999999563,16.63000000000102,16.784999999999854,16.525000000001455,16.6349999999984,16.790000000000873]",12,
-1,-1,RDK,55,13809,0.0-1.0-54.0,FALSE,"a,l",a,200,TRUE,200,1,180,0.5,2,-1,1,600,400,white,gray,3,2,2,16.70875,"[17.769999999998618,15.915000000000873,17.73999999999978,15.680000000000291,16.610000000000582,16.62499999999818,16.695000000001528,16.704999999999927,17.545000000000073,16.144999999998618,16.3700000000008,16.704999999999927]",12,
-1,-1,RDK,56,14025,0.0-1.0-55.0,FALSE,"a,l",a,200,TRUE,200,1,180,0.5,2,-1,1,600,400,white,gray,3,2,2,16.67958333,"[16.88000000000102,16.74499999999898,16.8799999999992,16.274999999999636,16.775000000001455,16.710000000000946,16.724999999998545,16.63000000000102,16.729999999999563,16.649999999999636,16.51000000000022,16.645000000000437]",12,
-1,-1,RDK,57,14243,0.0-1.0-56.0,FALSE,"a,l",l,200,TRUE,200,1,0,0.5,2,-1,1,600,400,white,gray,3,2,2,16.6425,"[16.520000000000437,16.520000000002256,16.644999999998618,16.709999999999127,16.61499999999978,16.67500000000109,16.700000000000728,16.6349999999984,16.68500000000131,16.73999999999978,16.590000000000146,16.67500000000109]",12,
-1,-1,RDK,58,14460,0.0-1.0-57.0,FALSE,"a,l",l,200,TRUE,200,1,0,0.5,2,-1,1,600,400,white,gray,3,2,2,16.71125,"[17.105000000001382,16.57999999999811,17.8700000000008,15.539999999999054,16.665000000000873,16.645000000000437,16.625,16.715000000000146,17.43000000000029,15.81499999999869,16.94499999999971,16.600000000000364]",12,
-1,-1,RDK,59,14674,0.0-1.0-58.0,FALSE,"a,l",a,200,TRUE,200,1,180,0.5,2,-1,1,600,400,white,gray,3,2,2,16.68363636,"[16.81999999999789,16.715000000001965,16.729999999999563,16.514999999999418,16.970000000001164,16.44999999999891,16.704999999999927,16.665000000000873,16.584999999999127,16.844999999999345,16.520000000000437]",11,
-1,-1,RDK,60,14876,0.0-1.0-59.0,FALSE,"a,l",a,200,TRUE,200,1,180,0.5,2,-1,1,600,400,white,gray,3,2,2,16.62375,"[15.959999999999127,16.07499999999891,16.68000000000029,16.579999999999927,17.530000000000655,15.914999999999054,16.575000000000728,16.665000000000873,16.969999999999345,16.44499999999971,16.69499999999971,17.395000000000437]",12,
-1,-1,RDK,61,15093,0.0-1.0-60.0,FALSE,"a,l",a,200,TRUE,200,1,180,0.5,2,-1,1,600,400,white,gray,3,2,2,16.695,"[16.8600000000024,16.599999999998545,16.68000000000029,17.57499999999891,16.035000000001673,16.5,16.61499999999978,16.889999999999418,16.475000000000364,17.579999999999927,15.804999999998472,16.725000000002183]",12,
-1,-1,RDK,62,15309,0.0-1.0-61.0,FALSE,"a,l",a,200,TRUE,200,1,180,0.5,2,-1,1,600,400,white,gray,3,2,2,16.70958333,"[16.9950000000008,16.61499999999978,16.764999999999418,16.55999999999949,16.665000000000873,17.100000000000364,16.514999999999418,16.479999999999563,16.7400000000016,16.82999999999811,16.43000000000029,16.81999999999971]",12,
-1,-1,RDK,63,15525,0.0-1.0-62.0,FALSE,"a,l",l,200,TRUE,200,1,0,0.5,2,-1,1,600,400,white,gray,3,2,2,16.71125,"[17.710000000000946,16.06499999999687,16.660000000001673,16.68000000000029,16.68999999999869,16.76000000000022,17.575000000000728,15.605000000001382,16.94499999999971,16.520000000000437,16.61999999999898,16.70499999999811]",12,
-1,-1,RDK,64,15744,0.0-1.0-63.0,FALSE,"a,l",a,200,TRUE,200,1,180,0.5,2,-1,1,600,400,white,gray,3,2,2,16.70958333,"[17.00500000000102,16.6299999999992,16.784999999998035,16.760000000002037,16.55500000000029,16.68000000000029,16.679999999998472,16.670000000000073,16.604999999999563,16.625,16.80999999999949,16.709999999999127]",12,
-1,-1,RDK,65,15960,0.0-1.0-64.0,FALSE,"a,l",l,200,TRUE,200,1,0,0.5,2,-1,1,600,400,white,gray,3,2,2,16.695,"[16.955000000001746,16.790000000000873,16.719999999997526,16.475000000002183,17.395000000000437,16.169999999998254,16.55000000000291,16.584999999999127,16.714999999996508,16.74499999999898,16.69000000000233,16.55000000000291]",12,
-1,-1,RDK,66,16177,0.0-1.0-65.0,FALSE,"a,l",l,200,TRUE,200,1,0,0.5,2,-1,1,600,400,white,gray,3,2,2,16.6375,"[16.540000000000873,16.235000000000582,16.639999999999418,16.729999999999563,16.75,17.200000000000728,15.895000000000437,16.590000000000146,17.479999999999563,16.114999999997963,16.705000000001746,16.7699999999968]",12,
-1,-1,RDK,67,16393,0.0-1.0-66.0,FALSE,"a,l",a,200,TRUE,200,1,180,0.5,2,-1,1,600,400,white,gray,3,2,2,16.68916667,"[16.830000000005384,16.839999999996508,16.450000000000728,16.8650000000016,16.665000000000873,16.469999999997526,16.760000000002037,16.669999999998254,16.75,16.580000000001746,16.7699999999968,16.61999999999898]",12,
-1,-1,RDK,68,16610,0.0-1.0-67.0,FALSE,"a,l",a,200,TRUE,200,1,180,0.5,2,-1,1,600,400,white,gray,3,2,2,16.68583333,"[16.970000000001164,16.599999999998545,16.649999999997817,16.700000000000728,17.19499999999971,16.3550000000032,16.5,16.68499999999767,16.835000000002765,16.484999999996944,16.570000000003347,16.68499999999767]",12,
-1,-1,RDK,69,16827,0.0-1.0-68.0,FALSE,"a,l",l,200,TRUE,200,1,0,0.5,2,-1,1,600,400,white,gray,3,2,2,16.70208333,"[17.229999999995925,16.474999999998545,16.87000000000262,16.584999999999127,16.400000000001455,16.760000000002037,17.00499999999738,17.2599999999984,16.250000000003638,16.284999999999854,16.709999999999127,16.595000000001164]",12,
-1,-1,RDK,70,17041,0.0-1.0-69.0,FALSE,"a,l",l,200,TRUE,200,1,0,0.5,2,-1,1,600,400,white,gray,3,2,2,16.69954545,"[16.984999999996944,16.590000000000146,16.535000000003492,16.929999999996653,16.75500000000102,16.674999999999272,16.475000000002183,16.859999999996944,16.6050000000032,16.714999999996508,16.570000000003347]",11,
-1,-1,RDK,71,17243,0.0-1.0-70.0,FALSE,"a,l",l,200,TRUE,200,1,0,0.5,2,-1,1,600,400,white,gray,3,2,2,16.59791667,"[15.854999999999563,16.49499999999898,16.7599999999984,16.655000000002474,16.62999999999738,16.840000000003783,16.549999999999272,16.770000000000437,16.639999999999418,16.604999999995925,16.799999999999272,16.575000000000728]",12,
-1,-1,RDK,72,17461,0.0-1.0-71.0,FALSE,"a,l",a,200,TRUE,200,1,180,0.5,2,-1,1,600,400,white,gray,3,2,2,16.71833333,"[17.67500000000291,16.36999999999898,16.474999999998545,16.529999999998836,16.755000000004657,16.514999999999418,16.799999999999272,16.674999999999272,17.49499999999898,15.825000000000728,16.7300000000032,16.774999999997817]",12,
-1,-1,RDK,73,17676,0.0-1.0-72.0,FALSE,"a,l",l,200,TRUE,200,1,0,0.5,2,-1,1,600,400,white,gray,3,2,2,16.70041667,"[16.99499999999898,17.530000000002474,16.18000000000029,16.200000000000728,17,16.56999999999607,16.645000000000437,16.575000000000728,16.705000000001746,16.674999999999272,16.68000000000029,16.649999999997817]",12,
-1,-1,RDK,74,17893,0.0-1.0-73.0,FALSE,"a,l",a,200,TRUE,200,1,180,0.5,2,-1,1,600,400,white,gray,3,2,2,16.615,"[16.095000000001164,16.590000000000146,16.614999999997963,16.710000000002765,16.599999999998545,17.349999999998545,16.30000000000291,17.409999999999854,15.919999999998254,16.655000000002474,16.529999999998836,16.604999999999563]",12,
-1,-1,RDK,75,18111,0.0-1.0-74.0,FALSE,"a,l",l,200,TRUE,200,1,0,0.5,2,-1,1,600,400,white,gray,3,2,2,16.70666667,"[17.095000000001164,16.595000000001164,16.715000000000146,16.68499999999767,17.395000000000437,15.905000000002474,16.639999999999418,16.62000000000262,16.669999999998254,17.24499999999898,16.360000000000582,16.55500000000029]",12,
-1,-1,RDK,76,18326,0.0-1.0-75.0,FALSE,"a,l",l,200,TRUE,200,1,0,0.5,2,-1,1,600,400,white,gray,3,2,2,16.68875,"[16.9900000000016,16.62000000000262,16.799999999999272,16.94999999999709,16.92500000000291,16.24499999999898,16.529999999998836,16.56000000000131,16.799999999999272,16.61999999999898,16.709999999999127,16.515000000003056]",12,
-1,-1,RDK,77,18544,0.0-1.0-76.0,FALSE,"a,l",l,200,TRUE,200,1,0,0.5,2,-1,1,600,400,white,gray,3,2,2,16.65958333,"[16.604999999995925,16.390000000003056,17.50499999999738,15.825000000000728,16.840000000003783,16.549999999995634,16.764999999999418,17.6349999999984,15.715000000000146,16.720000000004802,16.669999999998254,16.695000000003347]",12,
-1,-1,RDK,78,18760,0.0-1.0-77.0,FALSE,"a,l",a,200,TRUE,200,1,180,0.5,2,-1,1,600,400,white,gray,3,2,2,16.7075,"[17.030000000002474,16.645000000000437,16.709999999999127,16.55999999999767,16.965000000003783,16.31499999999869,16.899999999997817,16.56500000000233,16.724999999998545,16.919999999998254,16.49499999999898,16.660000000003492]",12,
-1,-1,RDK,79,18976,0.0-1.0-78.0,FALSE,"a,l",a,200,TRUE,200,1,180,0.5,2,-1,1,600,400,white,gray,3,2,2,16.68833333,"[17.099999999998545,16.595000000004802,16.61999999999898,17.589999999996508,16.030000000002474,16.625,16.514999999999418,16.674999999999272,16.75500000000102,16.56000000000131,16.62999999999738,16.56500000000233]",12,
-1,-1,RDK,80,19194,0.0-1.0-79.0,FALSE,"a,l",a,200,TRUE,200,1,180,0.5,2,-1,1,600,400,white,gray,3,2,2,16.64458333,"[16.465000000000146,16.4900000000016,16.735000000000582,16.61999999999898,16.575000000000728,16.899999999997817,16.445000000003347,16.914999999997235,16.654999999998836,16.650000000001455,16.729999999999563,16.55500000000029]",12,
-1,-1,RDK,81,19411,0.0-1.0-80.0,FALSE,"a,l",l,200,TRUE,200,1,0,0.5,2,-1,1,600,400,white,gray,3,2,2,16.70333333,"[17.58499999999549,15.945000000003347,16.764999999999418,17.739999999997963,15.630000000004657,16.689999999995052,16.630000000004657,16.714999999996508,17.510000000002037,15.924999999999272,16.6150000000016,16.689999999995052]",12,
-1,-1,RDK,82,19626,0.0-1.0-81.0,FALSE,"a,l",l,200,TRUE,200,1,0,0.5,2,-1,1,600,400,white,gray,3,2,2,16.7,"[17.540000000000873,16.104999999999563,16.735000000000582,17.534999999999854,16.1349999999984,16.3650000000016,16.735000000000582,16.55500000000029,16.61999999999898,16.715000000000146,16.67000000000189,16.68999999999869]",12,
-1,-1,RDK,83,19844,0.0-1.0-82.0,FALSE,"a,l",l,200,TRUE,200,1,0,0.5,2,-1,1,600,400,white,gray,3,2,2,16.71083333,"[17.05500000000393,16.735000000000582,16.614999999997963,16.68999999999869,16.715000000003783,16.744999999995343,16.54000000000451,16.869999999995343,16.7400000000016,16.4900000000016,16.61999999999898,16.715000000000146]",12,
-1,-1,RDK,84,20061,0.0-1.0-83.0,FALSE,"a,l",a,200,TRUE,200,1,180,0.5,2,-1,1,600,400,white,gray,3,2,2,16.68708333,"[17.55500000000029,15.830000000001746,16.539999999997235,16.650000000001455,16.739999999997963,16.845000000001164,16.63000000000102,16.650000000001455,16.70499999999811,17.030000000002474,16.349999999998545,16.719999999997526]",12,
-1,-1,RDK,85,20275,0.0-1.0-84.0,FALSE,"a,l",a,200,TRUE,200,1,180,0.5,2,-1,1,600,400,white,gray,3,2,2,16.70681818,"[16.910000000003492,16.75499999999738,16.604999999999563,17.404999999998836,16.06999999999971,16.635000000002037,16.549999999999272,16.790000000000873,16.599999999998545,16.525000000001455,16.93000000000029]",11,
-1,-1,RDK,86,20478,0.0-1.0-85.0,FALSE,"a,l",a,200,TRUE,200,1,180,0.5,2,-1,1,600,400,white,gray,3,2,2,16.59166667,"[16.085000000002765,16.099999999998545,16.81500000000233,16.57999999999811,16.705000000001746,16.739999999997963,16.594999999997526,16.695000000003347,17.38000000000102,16.034999999996217,16.720000000004802,16.649999999997817]",12,
-1,-1,RDK,87,20693,0.0-1.0-86.0,FALSE,"a,l",a,200,TRUE,200,1,180,0.5,2,-1,1,600,400,white,gray,3,2,2,16.71181818,"[17.06999999999971,16.49500000000262,16.6349999999984,17.720000000001164,15.720000000001164,16.729999999999563,16.57499999999709,16.780000000002474,16.639999999999418,17.155000000002474,16.309999999994034]",11,
-1,-1,RDK,88,20895,0.0-1.0-87.0,FALSE,"a,l",l,200,TRUE,200,1,0,0.5,2,-1,1,600,400,white,gray,3,2,2,16.51583333,"[14.885000000002037,16.68499999999767,16.7400000000016,16.554999999996653,16.69000000000233,16.88000000000102,16.544999999998254,17.68500000000131,15.724999999998545,16.55500000000029,16.7400000000016,16.50500000000102]",12,
-1,-1,RDK,89,21111,0.0-1.0-88.0,FALSE,"a,l",a,200,TRUE,200,1,180,0.5,2,-1,1,600,400,white,gray,3,2,2,16.70375,"[17.960000000002765,15.779999999998836,16.729999999999563,16.584999999999127,16.650000000001455,16.639999999999418,17.054999999996653,16.49499999999898,17.455000000001746,15.979999999999563,16.6050000000032,16.5099999999984]",12,
-1,-1,RDK,90,21328,0.0-1.0-89.0,FALSE,"a,l",l,200,TRUE,200,1,0,0.5,2,-1,1,600,400,white,gray,3,2,2,16.70916667,"[17.220000000004802,17.299999999995634,15.780000000002474,16.544999999998254,16.99500000000262,16.539999999997235,16.580000000001746,16.68000000000029,16.705000000001746,16.74499999999898,16.665000000000873,16.75499999999738]",12,
-1,-1,RDK,91,21545,0.0-1.0-90.0,FALSE,"a,l",l,200,TRUE,200,1,0,0.5,2,-1,1,600,400,white,gray,3,2,2,16.61375,"[16.135000000002037,16.514999999999418,16.664999999997235,16.695000000003347,16.63000000000102,17.529999999998836,16.1349999999984,17.479999999999563,15.784999999999854,16.650000000001455,16.525000000001455,16.61999999999898]",12,
-1,-1,RDK,92,21762,0.0-1.0-91.0,FALSE,"a,l",a,200,TRUE,200,1,180,0.5,2,-1,1,600,400,white,gray,3,2,2,16.70125,"[17.81999999999971,16.13000000000102,16.43999999999869,16.575000000000728,16.724999999998545,16.81499999999869,16.56999999999971,16.8849999999984,17.3650000000016,15.944999999999709,16.725000000002183,16.419999999998254]",12,
-1,-1,RDK,93,21978,0.0-1.0-92.0,FALSE,"a,l",a,200,TRUE,200,1,180,0.5,2,-1,1,600,400,white,gray,3,2,2,16.70208333,"[17.094999999997526,16.575000000000728,16.770000000000437,17.475000000002183,15.944999999996071,16.525000000001455,16.61999999999898,16.715000000000146,16.62000000000262,16.689999999995052,17.375000000003638,16.020000000000437]",12,
-1,-1,RDK,94,22194,0.0-1.0-93.0,FALSE,"a,l",l,200,TRUE,200,1,0,0.5,2,-1,1,600,400,white,gray,3,2,2,16.63625,"[16.409999999999854,16.45499999999811,16.720000000004802,16.63499999999476,16.715000000003783,17.31499999999869,16.104999999999563,16.68999999999869,16.710000000002765,16.719999999997526,16.525000000001455,16.635000000002037]",12,
-1,-1,RDK,95,22412,0.0-1.0-94.0,FALSE,"a,l",l,200,TRUE,200,1,0,0.5,2,-1,1,600,400,white,gray,3,2,2,16.72041667,"[17.764999999999418,16.125,17.69499999999971,15.610000000000582,16.529999999998836,16.775000000001455,16.68499999999767,16.6150000000016,16.649999999997817,16.79500000000189,16.724999999998545,16.67500000000291]",12,
-1,-1,RDK,96,22628,0.0-1.0-95.0,FALSE,"a,l",l,200,TRUE,200,1,0,0.5,2,-1,1,600,400,white,gray,3,2,2,16.69333333,"[17.06500000000233,16.594999999997526,16.594999999997526,17.18500000000131,16.334999999999127,16.660000000003492,16.62999999999738,16.600000000002183,16.8849999999984,16.544999999998254,16.525000000001455,16.700000000000728]",12,
-1,-1,RDK,97,22845,0.0-1.0-96.0,FALSE,"a,l",a,200,TRUE,200,1,180,0.5,2,-1,1,600,400,white,gray,3,2,2,16.62791667,"[16.25,16.50500000000102,16.75,16.6150000000016,16.729999999999563,17.25,16.07499999999709,17.770000000004075,15.719999999997526,16.55000000000291,16.784999999996217,16.535000000003492]",12,
-1,-1,RDK,98,23062,0.0-1.0-97.0,FALSE,"a,l",a,200,TRUE,200,1,180,0.5,2,-1,1,600,400,white,gray,3,2,2,16.70375,"[17.040000000000873,16.764999999999418,17.709999999999127,15.575000000000728,16.68000000000029,16.74499999999898,16.55999999999767,16.750000000003638,17.30999999999767,16.515000000003056,16.575000000000728,16.219999999997526]",12,
-1,-1,RDK,99,23277,0.0-1.0-98.0,FALSE,"a,l",l,200,TRUE,200,1,0,0.5,2,-1,1,600,400,white,gray,3,2,2,16.68166667,"[17.054999999996653,16.450000000000728,16.735000000000582,17.610000000000582,16.155000000002474,16.340000000000146,16.794999999998254,17.05999999999767,16.279999999998836,16.590000000003783,16.590000000000146,16.520000000000437]",12,
-1,-1,RDK,100,23495,0.0-1.0-99.0,FALSE,"a,l",l,200,TRUE,200,1,0,0.5,2,-1,1,600,400,white,gray,3,2,2,16.69625,"[16.989999999997963,17.500000000003638,15.834999999999127,16.645000000000437,16.68000000000029,17.31499999999869,16.2400000000016,17.464999999996508,15.885000000002037,16.650000000001455,16.479999999999563,16.669999999998254]",12,
-1,-1,RDK,101,23713,0.0-1.0-100.0,FALSE,"a,l",a,200,TRUE,200,1,180,0.5,2,-1,1,600,400,white,gray,3,2,2,16.69833333,"[16.99499999999898,16.7599999999984,16.770000000000437,16.445000000003347,16.639999999999418,16.950000000000728,16.43000000000029,16.69499999999607,17.69000000000233,15.954999999998108,16.49499999999898,16.55500000000029]",12,
-1,-1,RDK,102,23928,0.0-1.0-101.0,FALSE,"a,l",a,200,TRUE,200,1,180,0.5,2,-1,1,600,400,white,gray,3,2,2,16.68375,"[17.104999999999563,16.49500000000262,16.774999999997817,16.590000000000146,16.834999999999127,16.69499999999971,16.485000000000582,16.68000000000029,16.74499999999898,16.61999999999898,16.93500000000131,16.24500000000262]",12,
-1,-1,RDK,103,24145,0.0-1.0-102.0,FALSE,"a,l",l,200,TRUE,200,1,0,0.5,2,-1,1,600,400,white,gray,3,2,2,16.71,"[17.054999999996653,16.4800000000032,16.735000000000582,16.75500000000102,16.68000000000029,16.610000000000582,16.62999999999738,16.835000000002765,16.604999999995925,16.725000000002183,16.534999999999854,16.875]",12,
-1,-1,RDK,104,24362,0.0-1.0-103.0,FALSE,"a,l",l,200,TRUE,200,1,0,0.5,2,-1,1,600,400,white,gray,3,2,2,16.6975,"[16.900000000001455,16.62000000000262,17.589999999996508,15.915000000000873,16.49499999999898,16.709999999999127,16.799999999999272,16.55000000000291,17.274999999997817,16.3550000000032,16.44499999999971,16.715000000000146]",12,
-1,-1,RDK,105,24577,0.0-1.0-104.0,FALSE,"a,l",l,200,TRUE,200,1,0,0.5,2,-1,1,600,400,white,gray,3,2,2,16.69818182,"[16.924999999999272,16.81999999999971,16.584999999999127,16.6050000000032,16.845000000001164,16.590000000000146,16.749999999996362,16.610000000000582,16.639999999999418,16.56499999999869,16.74500000000262]",11,
-1,-1,RDK,106,24779,0.0-1.0-105.0,FALSE,"a,l",a,200,TRUE,200,1,180,0.5,2,-1,1,600,400,white,gray,3,2,2,16.59458333,"[15.735000000000582,16.549999999995634,16.625000000003638,16.790000000000873,16.56499999999869,16.79500000000189,16.649999999997817,16.63000000000102,16.924999999999272,16.654999999998836,16.43500000000131,16.779999999998836]",12,
-1,-1,RDK,107,24994,0.0-1.0-106.0,FALSE,"a,l",l,200,TRUE,200,1,0,0.5,2,-1,1,600,400,white,gray,3,2,2,16.71954545,"[17.044999999998254,16.735000000000582,16.635000000002037,16.674999999999272,16.735000000000582,16.539999999997235,16.720000000001164,16.674999999999272,16.650000000001455,17.469999999997526,16.034999999999854]",11,
-1,-1,RDK,108,25196,0.0-1.0-107.0,FALSE,"a,l",a,200,TRUE,200,1,180,0.5,2,-1,1,600,400,white,gray,3,2,2,16.55333333,"[15.139999999999418,16.44000000000233,16.68000000000029,16.719999999997526,16.75,16.67000000000189,16.904999999998836,16.42000000000189,16.674999999999272,16.57499999999709,16.639999999999418,17.025000000001455]",12,
-1,-1,RDK,109,25413,0.0-1.0-108.0,FALSE,"a,l",a,200,TRUE,200,1,180,0.5,2,-1,1,600,400,white,gray,3,2,2,16.67833333,"[16.62999999999738,16.69000000000233,16.674999999999272,16.614999999997963,16.640000000003056,16.794999999998254,16.604999999999563,16.965000000000146,16.4900000000016,17.224999999998545,16.11999999999898,16.68999999999869]",12,
-1,-1,RDK,110,25629,0.0-1.0-109.0,FALSE,"a,l",l,200,TRUE,200,1,0,0.5,2,-1,1,600,400,white,gray,3,2,2,16.7075,"[16.9900000000016,16.789999999997235,16.540000000000873,16.635000000002037,16.915000000000873,16.499999999996362,16.645000000000437,16.725000000002183,16.659999999996217,16.760000000002037,16.68000000000029,16.649999999997817]",12,
-1,-1,RDK,111,25846,0.0-1.0-110.0,FALSE,"a,l",a,200,TRUE,200,1,180,0.5,2,-1,1,600,400,white,gray,3,2,2,16.62125,"[16.219999999997526,16.399999999997817,16.74000000000524,16.714999999996508,16.584999999999127,17.400000000001455,15.989999999997963,16.645000000000437,16.68000000000393,16.75499999999738,16.625,16.69999999999709]",12,
-1,-1,RDK,112,26063,0.0-1.0-111.0,FALSE,"a,l",a,200,TRUE,200,1,180,0.5,2,-1,1,600,400,white,gray,3,2,2,16.69583333,"[17.654999999998836,15.954999999998108,16.6050000000032,16.614999999997963,16.75,16.614999999997963,16.810000000004948,16.974999999998545,16.165000000000873,16.900000000001455,16.544999999998254,16.7599999999984]",12,
-1,-1,RDK,113,26280,0.0-1.0-112.0,FALSE,"a,l",l,200,TRUE,200,1,0,0.5,2,-1,1,600,400,white,gray,3,2,2,16.72708333,"[16.974999999998545,16.81999999999971,16.6150000000016,16.37999999999738,17.025000000001455,16.790000000000873,16.455000000001746,16.659999999999854,16.764999999999418,16.625,16.590000000000146,17.024999999997817]",12,
-1,-1,RDK,114,26496,0.0-1.0-113.0,FALSE,"a,l",a,200,TRUE,200,1,180,0.5,2,-1,1,600,400,white,gray,3,2,2,16.69833333,"[17.165000000000873,16.485000000000582,16.635000000002037,16.604999999995925,16.835000000002765,16.985000000000582,16.43999999999869,16.56500000000233,16.770000000000437,16.604999999995925,16.650000000001455,16.640000000003056]",12,
-1,-1,RDK,115,26713,0.0-1.0-114.0,FALSE,"a,l",l,200,TRUE,200,1,0,0.5,2,-1,1,600,400,white,gray,3,2,2,16.70083333,"[16.970000000001164,16.70499999999811,16.820000000003347,16.38999999999578,16.845000000001164,16.63000000000102,16.68500000000131,16.724999999998545,17.674999999999272,15.729999999999563,16.645000000000437,16.590000000003783]",12,
-1,-1,RDK,116,26929,0.0-1.0-115.0,FALSE,"a,l",l,200,TRUE,200,1,0,0.5,2,-1,1,600,400,white,gray,3,2,2,16.695,"[16.93000000000029,16.625,16.665000000000873,16.659999999999854,16.955000000001746,16.56999999999971,16.595000000001164,16.590000000000146,16.729999999999563,16.799999999999272,17.049999999999272,16.169999999998254]",12,
-1,-1,RDK,117,27146,0.0-1.0-116.0,FALSE,"a,l",l,200,TRUE,200,1,0,0.5,2,-1,1,600,400,white,gray,3,2,2,16.7125,"[17.24499999999898,16.445000000003347,16.665000000000873,16.50499999999738,16.94499999999971,17.07999999999811,16.195000000003347,16.715000000000146,16.659999999999854,16.614999999997963,16.650000000001455,16.830000000001746]",12,
-1,-1,RDK,118,27363,0.0-1.0-117.0,FALSE,"a,l",l,200,TRUE,200,1,0,0.5,2,-1,1,600,400,white,gray,3,2,2,16.68791667,"[16.88000000000102,16.910000000003492,16.499999999996362,16.75,16.595000000001164,16.62999999999738,17.23500000000422,15.959999999999127,17.784999999999854,16.109999999996944,16.284999999999854,16.6150000000016]",12,
-1,-1,RDK,119,27579,0.0-1.0-118.0,FALSE,"a,l",l,200,TRUE,200,1,0,0.5,2,-1,1,600,400,white,gray,3,2,2,16.69333333,"[16.9900000000016,16.779999999998836,17.020000000000437,16.1150000000016,17.429999999996653,16.025000000005093,16.749999999996362,16.67000000000189,16.575000000000728,16.68999999999869,16.61999999999898,16.655000000002474]",12,
-1,-1,RDK,120,27797,0.0-1.0-119.0,FALSE,"a,l",a,200,TRUE,200,1,180,0.5,2,-1,1,600,400,white,gray,3,2,2,16.62875,"[16.31000000000131,16.340000000000146,16.674999999999272,16.790000000000873,16.729999999999563,17.294999999998254,16.13000000000102,17.5099999999984,15.850000000002183,16.62999999999738,16.635000000002037,16.650000000001455]",12,
-1,-1,RDK,121,28013,0.0-1.0-120.0,FALSE,"a,l",a,200,TRUE,200,1,180,0.5,2,-1,1,600,400,white,gray,3,2,2,16.68416667,"[17.44499999999607,16.224999999998545,16.695000000003347,16.520000000000437,16.659999999996217,16.640000000003056,16.69499999999971,16.590000000000146,17.544999999998254,16.29500000000189,16.285000000003492,16.614999999997963]",12,
-1,-1,RDK,122,28229,0.0-1.0-121.0,FALSE,"a,l",l,200,TRUE,200,1,0,0.5,2,-1,1,600,400,white,gray,3,2,2,16.66916667,"[16.81999999999971,16.61999999999898,16.729999999999563,16.43500000000131,17.025000000001455,16.735000000000582,16.32999999999811,16.81999999999971,16.750000000003638,16.734999999996944,16.534999999999854,16.49499999999898]",12,
-1,-1,RDK,123,28447,0.0-1.0-122.0,FALSE,"a,l",a,200,TRUE,200,1,180,0.5,2,-1,1,600,400,white,gray,3,2,2,16.63708333,"[16.280000000002474,16.625,16.6449999999968,16.710000000002765,16.63000000000102,17.349999999998545,16.040000000000873,16.649999999997817,16.75500000000102,16.56999999999971,16.724999999998545,16.665000000000873]",12,
-1,-1,RDK,124,28664,0.0-1.0-123.0,FALSE,"a,l",l,200,TRUE,200,1,0,0.5,2,-1,1,600,400,white,gray,3,2,2,16.69958333,"[17.470000000001164,15.979999999999563,16.844999999997526,16.710000000002765,16.650000000001455,16.734999999996944,16.540000000000873,16.7699999999968,16.6150000000016,16.74500000000262,16.674999999999272,16.659999999999854]",12,
-1,-1,RDK,125,28879,0.0-1.0-124.0,FALSE,"a,l",a,200,TRUE,200,1,180,0.5,2,-1,1,600,400,white,gray,3,2,2,16.67166667,"[16.86500000000524,16.544999999998254,16.7599999999984,16.63000000000102,16.770000000000437,16.645000000000437,16.654999999998836,16.655000000002474,16.735000000000582,16.669999999998254,16.599999999998545,16.529999999998836]",12,
-1,-1,RDK,126,29097,0.0-1.0-125.0,FALSE,"a,l",l,200,TRUE,200,1,0,0.5,2,-1,1,600,400,white,gray,3,2,2,16.68458333,"[17.01499999999578,16.37000000000262,16.774999999997817,16.62000000000262,16.729999999999563,16.645000000000437,16.57999999999811,16.775000000001455,16.5,16.81500000000233,16.74499999999898,16.645000000000437]",12,
-1,-1,RDK,127,29314,0.0-1.0-126.0,FALSE,"a,l",l,200,TRUE,200,1,0,0.5,2,-1,1,600,400,white,gray,3,2,2,16.70208333,"[17.594999999997526,16.2599999999984,16.715000000000146,16.514999999999418,16.770000000004075,16.57999999999447,16.750000000003638,16.604999999999563,17.290000000000873,16.125,16.604999999999563,16.6150000000016]",12,
-1,-1,RDK,128,29530,0.0-1.0-127.0,FALSE,"a,l",l,200,TRUE,200,1,0,0.5,2,-1,1,600,400,white,gray,3,2,2,16.66958333,"[16.854999999999563,16.56499999999869,16.68000000000029,17.534999999999854,16.159999999999854,16.485000000000582,16.485000000000582,16.774999999997817,16.660000000003492,16.659999999996217,17.135000000002037,16.040000000000873]",12,
-1,-1,RDK,129,29747,0.0-1.0-128.0,FALSE,"a,l",a,200,TRUE,200,1,180,0.5,2,-1,1,600,400,white,gray,3,2,2,16.64958333,"[16.595000000001164,16.375,16.799999999999272,16.6349999999984,16.625000000003638,16.639999999999418,16.599999999998545,16.774999999997817,16.80000000000291,16.68000000000029,16.529999999998836,16.7400000000016]",12,
-1,-1,RDK,130,29965,0.0-1.0-129.0,FALSE,"a,l",l,200,TRUE,200,1,0,0.5,2,-1,1,600,400,white,gray,3,2,2,16.72625,"[17.100000000002183,16.69499999999607,16.630000000004657,16.774999999997817,16.68000000000029,16.600000000002183,16.589999999996508,16.860000000000582,16.4900000000016,16.74499999999898,16.655000000002474,16.8949999999968]",12,
-1,-1,RDK,131,30181,0.0-1.0-130.0,FALSE,"a,l",l,200,TRUE,200,1,0,0.5,2,-1,1,600,400,white,gray,3,2,2,18.20681818,"[16.854999999999563,30.860000000000582,19.125,16.74499999999898,16.529999999998836,16.720000000001164,16.659999999999854,17.1150000000016,16.38999999999578,16.68000000000029,16.595000000001164]",11,
-1,-1,RDK,132,30398,0.0-1.0-131.0,FALSE,"a,l",a,200,TRUE,200,1,180,0.5,2,-1,1,600,400,white,gray,3,2,2,16.70833333,"[17.06999999999971,16.524999999997817,16.735000000000582,16.700000000000728,16.590000000000146,17.8650000000016,16.049999999999272,16.729999999999563,16.090000000000146,16.709999999999127,16.645000000000437,16.790000000000873]",12,
-1,-1,RDK,133,30614,0.0-1.0-132.0,FALSE,"a,l",l,200,TRUE,200,1,0,0.5,2,-1,1,600,400,white,gray,3,2,2,16.69125,"[17.840000000000146,15.715000000000146,16.68999999999869,16.739999999997963,16.67000000000189,16.69000000000233,17.37999999999738,16.040000000000873,18.034999999999854,15.290000000000873,16.614999999997963,16.590000000000146]",12,
-1,-1,RDK,134,30831,0.0-1.0-133.0,FALSE,"a,l",l,200,TRUE,200,1,0,0.5,2,-1,1,600,400,white,gray,3,2,2,16.71583333,"[17.17000000000189,16.735000000000582,16.529999999998836,16.74499999999898,16.645000000000437,16.595000000001164,16.665000000000873,16.664999999997235,16.709999999999127,17.635000000002037,15.670000000001892,16.825000000000728]",12,
-1,-1,RDK,135,31048,0.0-1.0-134.0,FALSE,"a,l",l,200,TRUE,200,1,0,0.5,2,-1,1,600,400,white,gray,3,2,2,16.73958333,"[18.18499999999767,15.380000000001019,16.915000000000873,17.56999999999971,15.790000000004511,16.909999999996217,16.279999999998836,16.720000000001164,16.56999999999971,16.68000000000393,16.779999999998836,17.094999999997526]",12,
-1,-1,RDK,136,31265,0.0-1.0-135.0,FALSE,"a,l",a,200,TRUE,200,1,180,0.5,2,-1,1,600,400,white,gray,3,2,2,16.70833333,"[17.19999999999709,16.585000000002765,16.729999999999563,16.4900000000016,17.94999999999709,15.555000000000291,17.965000000000146,15.489999999997963,17.79500000000189,15.6150000000016,16.6150000000016,16.5099999999984]",12,
-1,-1,RDK,137,31482,0.0-1.0-136.0,FALSE,"a,l",l,200,TRUE,200,1,0,0.5,2,-1,1,600,400,white,gray,3,2,2,16.71291667,"[17.094999999997526,16.55500000000029,16.854999999999563,17.889999999999418,15.375,16.68500000000131,16.70999999999549,16.584999999999127,16.790000000000873,16.7300000000032,16.725000000002183,16.55999999999767]",12,
-1,-1,RDK,138,31698,0.0-1.0-137.0,FALSE,"a,l",a,200,TRUE,200,1,180,0.5,2,-1,1,600,400,white,gray,3,2,2,16.70291667,"[17.085000000002765,16.55999999999767,16.57999999999811,16.804999999996653,16.590000000000146,16.940000000005966,16.5,16.614999999994325,16.700000000000728,16.654999999998836,16.635000000002037,16.770000000000437]",12,
-1,-1,RDK,139,31915,0.0-1.0-138.0,FALSE,"a,l",a,200,TRUE,200,1,180,0.5,2,-1,1,600,400,white,gray,3,2,2,16.72333333,"[17.24500000000262,16.734999999996944,16.505000000004657,16.674999999999272,16.70999999999549,16.715000000003783,16.739999999997963,16.514999999999418,16.720000000001164,16.804999999996653,17.930000000007567,15.384999999994761]",12,
-1,-1,RDK,140,32129,0.0-1.0-139.0,FALSE,"a,l",l,200,TRUE,200,1,0,0.5,2,-1,1,600,400,white,gray,3,2,2,16.69909091,"[16.970000000001164,17.08499999999549,16.17000000000189,17.67000000000189,15.830000000001746,16.599999999998545,16.56499999999869,16.674999999999272,17.600000000002183,15.94999999999709,16.575000000004366]",11,
-1,-1,RDK,141,32332,0.0-1.0-140.0,FALSE,"a,l",a,200,TRUE,200,1,180,0.5,2,-1,1,600,400,white,gray,3,2,2,16.545,"[15.29500000000553,16.514999999999418,16.614999999997963,16.6050000000032,17.299999999995634,16.460000000006403,16.389999999992142,17.410000000003492,16.470000000001164,16.08499999999185,16.810000000012224,16.584999999999127]",12,
-1,-1,RDK,142,32548,0.0-1.0-141.0,FALSE,"a,l",a,200,TRUE,200,1,180,0.5,2,-1,1,600,400,white,gray,3,2,2,16.70541667,"[17.93499999999767,15.970000000001164,16.580000000001746,16.7699999999968,16.785000000003492,16.50499999999738,16.67500000000291,17.080000000001746,17.27499999999418,15.694999999999709,16.68000000000029,16.514999999999418]",12,
-1,-1,RDK,143,32764,0.0-1.0-142.0,FALSE,"a,l",l,200,TRUE,200,1,0,0.5,2,-1,1,600,400,white,gray,3,2,2,16.70166667,"[17.040000000000873,16.70999999999185,16.599999999998545,16.695000000006985,16.834999999999127,16.625,16.56999999999971,16.650000000001455,16.714999999996508,16.580000000001746,17.235000000000582,16.165000000000873]",12,
-1,-1,RDK,144,32982,0.0-1.0-143.0,FALSE,"a,l",l,200,TRUE,200,1,0,0.5,2,-1,1,600,400,white,gray,3,2,2,16.70333333,"[17.139999999999418,16.459999999999127,16.514999999999418,16.755000000004657,16.77499999999418,16.685000000004948,16.82999999999447,16.620000000009895,16.654999999998836,16.70999999999185,16.700000000004366,16.595000000001164]",12,
-1,-1,RDK,145,33199,0.0-1.0-144.0,FALSE,"a,l",l,200,TRUE,200,1,0,0.5,2,-1,1,600,400,white,gray,3,2,2,16.71541667,"[17.035000000003492,16.69999999999709,17.44000000000233,15.990000000005239,16.62999999999738,16.584999999999127,16.664999999993597,16.610000000000582,16.765000000006694,16.625,16.904999999998836,16.635000000002037]",12,
-1,-1,RDK,146,33414,0.0-1.0-145.0,FALSE,"a,l",l,200,TRUE,200,1,0,0.5,2,-1,1,600,400,white,gray,3,2,2,16.69958333,"[16.970000000001164,16.81500000000233,16.599999999998545,16.660000000003492,16.709999999999127,16.69499999999971,16.534999999996217,16.645000000004075,16.845000000001164,16.714999999996508,16.55500000000029,16.650000000001455]",12,
-1,-1,RDK,147,33632,0.0-1.0-146.0,FALSE,"a,l",l,200,TRUE,200,1,0,0.5,2,-1,1,600,400,white,gray,3,2,2,16.70208333,"[17.089999999996508,16.354999999995925,16.864999999997963,17.44000000000233,15.72500000000582,16.75999999999476,16.56999999999971,16.864999999997963,16.595000000001164,16.760000000002037,16.659999999996217,16.74000000000524]",12,
-1,-1,RDK,148,33848,0.0-1.0-147.0,FALSE,"a,l",a,200,TRUE,200,1,180,0.5,2,-1,1,600,400,white,gray,3,2,2,16.705,"[17.12000000000262,16.599999999998545,17.594999999993888,15.855000000003201,16.710000000006403,16.62999999999738,16.650000000001455,16.64999999999418,16.705000000001746,16.599999999998545,17.760000000002037,15.584999999999127]",12,
-1,-1,RDK,149,34063,0.0-1.0-148.0,FALSE,"a,l",a,200,TRUE,200,1,180,0.5,2,-1,1,600,400,white,gray,3,2,2,16.70909091,"[17.099999999998545,16.665000000000873,16.714999999996508,16.625,17,17.335000000006403,15.75499999999738,16.75499999999738,16.69999999999709,16.61500000000524,16.534999999996217]",11,
-1,-1,RDK,150,34266,0.0-1.0-149.0,FALSE,"a,l",l,200,TRUE,200,1,0,0.5,2,-1,1,600,400,white,gray,3,2,2,16.57125,"[15.599999999998545,16.590000000003783,18.840000000003783,15.415000000000873,15.779999999998836,16.610000000000582,16.525000000001455,16.814999999995052,16.760000000002037,16.55999999999767,16.7300000000032,16.62999999999738]",12,
-1,-1,RDK,151,34482,0.0-1.0-150.0,FALSE,"a,l",a,200,TRUE,200,1,180,0.5,2,-1,1,600,400,white,gray,3,2,2,16.71333333,"[16.94999999999709,17.840000000003783,15.339999999989232,16.840000000003783,16.69000000000233,16.610000000000582,16.639999999999418,16.81500000000233,16.604999999995925,16.6050000000032,16.57499999999709,17.049999999995634]",12,
-1,-1,RDK,152,34697,0.0-1.0-151.0,FALSE,"a,l",l,200,TRUE,200,1,0,0.5,2,-1,1,600,400,white,gray,3,2,2,16.69409091,"[16.840000000003783,16.75499999999738,16.604999999995925,16.845000000001164,17.130000000004657,16.255000000004657,16.679999999993015,16.585000000006403,16.569999999992433,16.724999999998545,16.645000000004075]",11,
-1,-1,RDK,153,34899,0.0-1.0-152.0,FALSE,"a,l",a,200,TRUE,200,1,180,0.5,2,-1,1,600,400,white,gray,3,2,2,16.55708333,"[16.039999999993597,15.855000000003201,17.540000000000873,15.599999999998545,16.75,17.580000000001746,15.724999999998545,16.875,17.275000000001455,16.02499999999418,16.764999999999418,16.655000000006112]",12,
-1,-1,RDK,154,35115,0.0-1.0-153.0,FALSE,"a,l",a,200,TRUE,200,1,180,0.5,2,-1,1,600,400,white,gray,3,2,2,16.67541667,"[16.82999999999447,16.610000000000582,16.80000000000291,16.62999999999738,16.94000000000233,16.415000000000873,17.00499999999738,16.31999999999971,16.735000000000582,16.715000000003783,16.540000000000873,16.564999999995052]",12,
-1,-1,RDK,155,35333,0.0-1.0-154.0,FALSE,"a,l",l,200,TRUE,200,1,0,0.5,2,-1,1,600,400,white,gray,3,2,2,16.71125,"[17.095000000001164,17.810000000004948,15.429999999993015,16.710000000006403,16.93000000000029,17.52999999999156,15.505000000004657,16.764999999999418,16.625,16.715000000003783,16.739999999997963,16.68000000000029]",12,
-1,-1,RDK,156,35549,0.0-1.0-155.0,FALSE,"a,l",a,200,TRUE,200,1,180,0.5,2,-1,1,600,400,white,gray,3,2,2,16.70333333,"[16.959999999999127,16.590000000003783,17.129999999990105,16.205000000001746,16.764999999999418,16.54000000000815,16.714999999996508,16.760000000002037,16.735000000000582,16.589999999996508,17.81999999999971,15.62999999999738]",12,
-1,-1,RDK,157,35764,0.0-1.0-156.0,FALSE,"a,l",a,200,TRUE,200,1,180,0.5,2,-1,1,600,400,white,gray,3,2,2,16.70045455,"[16.94499999999971,16.604999999995925,16.74500000000262,16.62000000000262,16.57999999999447,16.764999999999418,16.62999999999738,16.66500000000815,17.044999999998254,17.294999999998254,15.810000000004948]",11,
-1,-1,RDK,158,35966,0.0-1.0-157.0,FALSE,"a,l",a,200,TRUE,200,1,180,0.5,2,-1,1,600,400,white,gray,3,2,2,16.57,"[15.54500000000553,16.56999999999971,16.6449999999968,16.61500000000524,16.599999999998545,16.885000000002037,16.554999999993015,16.639999999999418,16.875,16.55999999999767,16.56500000000233,16.785000000003492]",12,
-1,-1,RDK,159,36182,0.0-1.0-158.0,FALSE,"a,l",a,200,TRUE,200,1,180,0.5,2,-1,1,600,400,white,gray,3,2,2,16.71,"[17.19000000000233,16.525000000001455,17.270000000004075,16.574999999989814,16.210000000006403,16.614999999997963,16.709999999999127,16.62999999999738,16.780000000006112,17.139999999992142,16.125000000007276,16.75]",12,
-1,-1,RDK,160,36400,0.0-1.0-159.0,FALSE,"a,l",l,200,TRUE,200,1,0,0.5,2,-1,1,600,400,white,gray,3,2,2,16.69625,"[16.970000000001164,16.52999999999156,16.700000000004366,17.549999999995634,15.864999999997963,16.834999999999127,16.575000000004366,16.74500000000262,16.57499999999709,16.705000000001746,16.735000000000582,16.56999999999971]",12,
-1,-1,RDK,161,36616,0.0-1.0-160.0,FALSE,"a,l",a,200,TRUE,200,1,180,0.5,2,-1,1,600,400,white,gray,3,2,2,16.65166667,"[16.380000000004657,17.469999999993888,15.74500000000262,16.61500000000524,16.749999999992724,16.705000000001746,16.635000000002037,17.719999999993888,15.760000000002037,16.639999999999418,17.410000000003492,15.989999999997963]",12,
-1,-1,RDK,162,36833,0.0-1.0-161.0,FALSE,"a,l",l,200,TRUE,200,1,0,0.5,2,-1,1,600,400,white,gray,3,2,2,16.68708333,"[17.864999999997963,15.690000000002328,16.45499999999447,16.63499999999476,16.97500000000582,16.540000000000873,16.659999999996217,16.705000000001746,16.639999999999418,16.80999999999767,16.42000000000553,16.849999999998545]",12,
-1,-1,RDK,163,37050,0.0-1.0-162.0,FALSE,"a,l",a,200,TRUE,200,1,180,0.5,2,-1,1,600,400,white,gray,3,2,2,16.71375,"[17.044999999990978,16.575000000004366,16.799999999995634,16.700000000004366,17.0199999999968,16.139999999999418,17.260000000002037,16.37000000000262,16.580000000001746,16.55999999999767,16.69999999999709,16.81500000000233]",12,
-1,-1,RDK,164,37266,0.0-1.0-163.0,FALSE,"a,l",a,200,TRUE,200,1,180,0.5,2,-1,1,600,400,white,gray,3,2,2,16.66166667,"[16.3949999999968,17.635000000002037,15.834999999999127,16.665000000000873,16.479999999995925,16.82499999999709,16.555000000007567,17.339999999996508,16.075000000004366,17.70499999999447,15.779999999998836,16.650000000001455]",12,
-1,-1,RDK,165,37483,0.0-1.0-164.0,FALSE,"a,l",a,200,TRUE,200,1,180,0.5,2,-1,1,600,400,white,gray,3,2,2,16.7,"[17.174999999995634,16.310000000004948,16.70499999999447,16.810000000004948,16.55999999999767,16.819999999992433,16.640000000006694,16.724999999998545,18.229999999995925,14.980000000003201,16.6050000000032,16.839999999996508]",12,
-1,-1,RDK,166,37700,0.0-1.0-165.0,FALSE,"a,l",a,200,TRUE,200,1,180,0.5,2,-1,1,600,400,white,gray,3,2,2,16.70833333,"[17.034999999996217,16.665000000000873,16.715000000003783,16.739999999997963,16.64999999999418,16.505000000004657,16.82999999999447,16.755000000004657,16.485000000000582,16.765000000006694,16.719999999993888,16.63499999999476]",12,
-1,-1,RDK,167,37917,0.0-1.0-166.0,FALSE,"a,l",a,200,TRUE,200,1,180,0.5,2,-1,1,600,400,white,gray,3,2,2,16.72333333,"[16.97500000000582,16.814999999995052,16.810000000004948,16.474999999998545,16.70499999999447,16.7300000000032,16.575000000004366,16.68499999999767,16.654999999998836,16.825000000004366,17.37999999999738,16.049999999995634]",12,
-1,-1,RDK,168,38134,0.0-1.0-167.0,FALSE,"a,l",l,200,TRUE,200,1,0,0.5,2,-1,1,600,400,white,gray,3,2,2,16.69916667,"[16.900000000001455,16.639999999992142,16.540000000000873,16.81999999999971,17.435000000004948,17.19999999999709,15.474999999998545,16.515000000006694,16.639999999992142,16.654999999998836,16.710000000006403,16.860000000000582]",12,
-1,-1,RDK,169,38350,0.0-1.0-168.0,FALSE,"a,l",a,200,TRUE,200,1,180,0.5,2,-1,1,600,400,white,gray,3,2,2,16.68583333,"[16.869999999995343,16.56500000000233,16.85000000000582,16.52499999999418,16.760000000002037,17.674999999995634,15.520000000004075,16.74500000000262,16.834999999999127,16.6449999999968,16.55999999999767,16.68000000000029]",12,
-1,-1,RDK,170,38567,0.0-1.0-169.0,FALSE,"a,l",l,200,TRUE,200,1,0,0.5,2,-1,1,600,400,white,gray,3,2,2,16.70041667,"[18.004999999990105,15.740000000005239,16.659999999996217,16.849999999998545,16.62000000000262,16.650000000001455,16.654999999998836,16.660000000003492,16.484999999993306,16.905000000006112,16.75,16.424999999995634]",12,
-1,-1,RDK,171,38784,0.0-1.0-170.0,FALSE,"a,l",l,200,TRUE,200,1,0,0.5,2,-1,1,600,400,white,gray,3,2,2,16.71041667,"[17.220000000001164,16.635000000002037,16.584999999999127,16.484999999993306,17.040000000000873,16.640000000006694,16.635000000002037,16.50999999999476,16.625,16.705000000001746,17.42500000000291,16.0199999999968]",12,
-1,-1,RDK,172,39000,0.0-1.0-171.0,FALSE,"a,l",a,200,TRUE,200,1,180,0.5,2,-1,1,600,400,white,gray,3,2,2,16.69041667,"[17.044999999998254,16.49000000000524,16.734999999993306,16.685000000004948,16.779999999998836,16.7699999999968,16.525000000001455,17.86500000000524,15.37999999999738,16.650000000001455,16.734999999993306,16.625000000007276]",12,
-1,-1,RDK,173,39217,0.0-1.0-172.0,FALSE,"a,l",l,200,TRUE,200,1,0,0.5,2,-1,1,600,400,white,gray,3,2,2,16.69916667,"[16.959999999999127,17.650000000001455,15.635000000002037,16.7699999999968,16.580000000001746,16.784999999996217,16.525000000001455,16.80000000000291,16.625,16.659999999996217,16.650000000001455,16.75]",12,
-1,-1,RDK,174,39434,0.0-1.0-173.0,FALSE,"a,l",a,200,TRUE,200,1,180,0.5,2,-1,1,600,400,white,gray,3,2,2,16.70041667,"[17.140000000006694,16.59999999999127,16.965000000003783,16.229999999995925,17.590000000003783,15.680000000000291,16.799999999995634,16.635000000002037,16.660000000003492,16.639999999999418,16.889999999999418,16.575000000004366]",12,
-1,-1,RDK,175,39651,0.0-1.0-174.0,FALSE,"a,l",l,200,TRUE,200,1,0,0.5,2,-1,1,600,400,white,gray,3,2,2,16.6975,"[17.17000000000553,16.659999999996217,16.385000000002037,16.87000000000262,16.834999999999127,16.360000000000582,16.74500000000262,16.80999999999767,16.714999999996508,16.69499999999971,16.510000000002037,16.61500000000524]",12,
-1,-1,RDK,176,39868,0.0-1.0-175.0,FALSE,"a,l",a,200,TRUE,200,1,180,0.5,2,-1,1,600,400,white,gray,3,2,2,16.71125,"[17.154999999998836,16.790000000000873,16.74500000000262,16.61500000000524,16.62999999999738,16.744999999995343,16.44499999999971,16.739999999997963,17.69999999999709,15.67500000000291,16.650000000001455,16.645000000004075]",12,
-1,-1,RDK,177,40082,0.0-1.0-176.0,FALSE,"a,l",a,200,TRUE,200,1,180,0.5,2,-1,1,600,400,white,gray,3,2,2,16.70136364,"[17.12000000000262,16.564999999995052,16.810000000004948,17.55999999999767,16.040000000000873,16.334999999999127,16.589999999996508,16.710000000006403,16.720000000001164,16.614999999997963,16.650000000001455]",11,
-1,-1,RDK,178,40284,0.0-1.0-177.0,FALSE,"a,l",l,200,TRUE,200,1,0,0.5,2,-1,1,600,400,white,gray,3,2,2,16.56541667,"[15.315000000002328,16.64999999999418,18.205000000001746,15.130000000004657,16.63499999999476,16.845000000001164,16.904999999998836,17.470000000001164,15.589999999996508,16.630000000004657,16.80000000000291,16.610000000000582]",12,
-1,-1,RDK,179,40501,0.0-1.0-178.0,FALSE,"a,l",a,200,TRUE,200,1,180,0.5,2,-1,1,600,400,white,gray,3,2,2,16.69583333,"[16.900000000001455,16.790000000000873,16.5,16.755000000004657,16.70499999999447,16.825000000004366,16.554999999993015,16.750000000007276,16.514999999999418,16.614999999997963,16.7300000000032,16.709999999999127]",12,
-1,-1,RDK,180,40718,0.0-1.0-179.0,FALSE,"a,l",a,200,TRUE,200,1,180,0.5,2,-1,1,600,400,white,gray,3,2,2,16.69083333,"[16.999999999992724,16.505000000004657,16.64999999999418,16.71500000001106,17.58499999999185,15.74500000000262,17.604999999995925,15.835000000006403,16.68000000000029,16.674999999995634,16.709999999999127,16.584999999999127]",12,
-1,-1,RDK,181,40934,0.0-1.0-180.0,FALSE,"a,l",a,200,TRUE,200,1,180,0.5,2,-1,1,600,400,white,gray,3,2,2,16.62541667,"[16.12999999999738,17.87000000000262,15.474999999998545,16.709999999999127,16.770000000004075,16.419999999990978,16.700000000004366,17.68000000000029,15.69999999999709,16.735000000007858,16.594999999993888,16.720000000001164]",12,
-1,-1,RDK,182,41151,0.0-1.0-181.0,FALSE,"a,l",l,200,TRUE,200,1,0,0.5,2,-1,1,600,400,white,gray,3,2,2,16.70166667,"[17.014999999999418,16.799999999995634,16.525000000001455,16.67500000000291,16.62999999999738,16.780000000006112,16.784999999996217,16.635000000002037,16.4800000000032,17.214999999996508,16.169999999998254,16.710000000006403]",12,
-1,-1,RDK,183,41368,0.0-1.0-182.0,FALSE,"a,l",l,200,TRUE,200,1,0,0.5,2,-1,1,600,400,white,gray,3,2,2,16.72083333,"[17.12000000000262,16.529999999998836,16.94499999999971,17.529999999998836,15.834999999999127,16.360000000000582,16.69000000000233,16.794999999998254,16.67000000000553,16.584999999999127,16.669999999998254,16.919999999998254]",12,
-1,-1,RDK,184,41585,0.0-1.0-183.0,FALSE,"a,l",a,200,TRUE,200,1,180,0.5,2,-1,1,600,400,white,gray,3,2,2,16.70791667,"[17.085000000006403,16.68499999999767,16.669999999998254,16.72500000000582,16.610000000000582,16.719999999993888,16.640000000006694,16.55999999999767,16.685000000004948,18.00999999999476,15.520000000004075,16.584999999999127]",12,
-1,-1,RDK,185,41802,0.0-1.0-184.0,FALSE,"a,l",l,200,TRUE,200,1,0,0.5,2,-1,1,600,400,white,gray,3,2,2,16.70708333,"[16.965000000003783,16.669999999998254,16.494999999995343,16.91500000000815,16.554999999993015,16.8550000000032,16.589999999996508,16.474999999998545,16.700000000004366,16.654999999998836,17.834999999999127,15.775000000001455]",12,
-1,-1,RDK,186,42018,0.0-1.0-185.0,FALSE,"a,l",l,200,TRUE,200,1,0,0.5,2,-1,1,600,400,white,gray,3,2,2,16.69708333,"[16.919999999998254,16.61500000000524,17.369999999995343,16.80000000000291,15.875,17.660000000003492,15.609999999993306,16.80000000000291,16.705000000001746,16.630000000004657,16.594999999993888,16.784999999996217]",12,
-1,-1,RDK,187,42235,0.0-1.0-186.0,FALSE,"a,l",l,200,TRUE,200,1,0,0.5,2,-1,1,600,400,white,gray,3,2,2,16.67166667,"[16.52999999999156,16.610000000000582,16.84500000000844,16.5,16.790000000000873,16.619999999995343,16.8949999999968,17.010000000002037,16.209999999999127,16.645000000004075,16.854999999995925,16.55000000000291]",12,
-1,-1,RDK,188,42451,0.0-1.0-187.0,FALSE,"a,l",l,200,TRUE,200,1,0,0.5,2,-1,1,600,400,white,gray,3,2,2,16.70416667,"[17.1050000000032,16.790000000000873,16.514999999999418,16.7300000000032,17.3949999999968,16.375,16.214999999996508,16.830000000001746,16.639999999999418,16.715000000003783,16.409999999996217,16.729999999995925]",12,
-1,-1,RDK,189,42668,0.0-1.0-188.0,FALSE,"a,l",a,200,TRUE,200,1,180,0.5,2,-1,1,600,400,white,gray,3,2,2,16.62916667,"[17.52499999999418,15.260000000002037,17.014999999999418,16.24500000000262,17.494999999995343,16.69000000000233,15.989999999997963,16.61500000000524,16.764999999999418,16.57999999999447,16.685000000004948,16.68499999999767]",12,
-1,-1,RDK,190,42885,0.0-1.0-189.0,FALSE,"a,l",l,200,TRUE,200,1,0,0.5,2,-1,1,600,400,white,gray,3,2,2,16.7175,"[17.029999999998836,16.834999999999127,16.529999999998836,16.62000000000262,16.830000000001746,16.80999999999767,16.49500000000262,16.69999999999709,16.404999999998836,16.94000000000233,16.62000000000262,16.794999999998254]",12,
-1,-1,RDK,191,43102,0.0-1.0-190.0,FALSE,"a,l",l,200,TRUE,200,1,0,0.5,2,-1,1,600,400,white,gray,3,2,2,16.68916667,"[16.880000000004657,16.68000000000029,16.68499999999767,16.590000000003783,16.914999999993597,16.49500000000262,16.654999999998836,16.645000000004075,16.705000000001746,16.794999999998254,16.62000000000262,16.604999999995925]",12,
-1,-1,RDK,192,43318,0.0-1.0-191.0,FALSE,"a,l",a,200,TRUE,200,1,180,0.5,2,-1,1,600,400,white,gray,3,2,2,16.60875,"[16.159999999996217,16.354999999995925,17.635000000002037,15.855000000003201,16.709999999999127,16.625,16.665000000000873,17.844999999993888,15.550000000010186,16.784999999996217,16.610000000000582,16.50999999999476]",12,
-1,-1,RDK,193,43535,0.0-1.0-192.0,FALSE,"a,l",a,200,TRUE,200,1,180,0.5,2,-1,1,600,400,white,gray,3,2,2,16.71166667,"[17.02499999999418,16.62000000000262,16.700000000004366,16.75,16.689999999995052,16.54500000000553,16.69499999999971,16.674999999995634,16.595000000001164,16.785000000003492,16.715000000003783,16.744999999988067]",12,
-1,-1,RDK,194,43752,0.0-1.0-193.0,FALSE,"a,l",a,200,TRUE,200,1,180,0.5,2,-1,1,600,400,white,gray,3,2,2,16.69833333,"[16.979999999995925,18.030000000006112,15.39999999999418,16.4800000000032,16.814999999995052,16.770000000004075,16.589999999996508,16.75,16.599999999998545,16.580000000009022,16.62999999999738,16.75499999999738]",12,
-1,-1,RDK,195,43968,0.0-1.0-194.0,FALSE,"a,l",a,200,TRUE,200,1,180,0.5,2,-1,1,600,400,white,gray,3,2,2,16.68833333,"[17.114999999997963,16.455000000001746,16.625000000007276,16.724999999998545,16.859999999993306,17.1050000000032,16.13499999999476,16.74500000000262,16.69999999999709,16.440000000009604,16.75999999999476,16.595000000001164]",12,
-1,-1,RDK,196,44185,0.0-1.0-195.0,FALSE,"a,l",l,200,TRUE,200,1,0,0.5,2,-1,1,600,400,white,gray,3,2,2,16.70125,"[17.705000000001746,15.970000000001164,17.720000000001164,15.720000000001164,16.705000000001746,16.57499999999709,16.89999999999418,16.460000000006403,17.38499999999476,16.160000000003492,17.619999999995343,15.49500000000262]",12,
-1,-1,RDK,197,44400,0.0-1.0-196.0,FALSE,"a,l",l,200,TRUE,200,1,0,0.5,2,-1,1,600,400,white,gray,3,2,2,16.695,"[16.94499999999971,16.75999999999476,16.710000000006403,17.549999999995634,15.810000000004948,16.594999999993888,17.270000000004075,16.05000000000291,16.68000000000029,16.784999999996217,16.489999999997963]",11,
-1,-1,RDK,198,44602,0.0-1.0-197.0,FALSE,"a,l",a,200,TRUE,200,1,180,0.5,2,-1,1,600,400,white,gray,3,2,2,16.57041667,"[15.74500000000262,16.32999999999447,17.555000000007567,15.75499999999738,16.744999999995343,16.645000000004075,17.24000000000524,16.20499999999447,16.639999999999418,16.685000000004948,16.654999999998836,16.6449999999968]",12,
-1,-1,RDK,199,44819,0.0-1.0-198.0,FALSE,"a,l",a,200,TRUE,200,1,180,0.5,2,-1,1,600,400,white,gray,3,2,2,16.70541667,"[17.464999999996508,16.075000000004366,16.604999999995925,16.95499999999447,16.67000000000553,16.67500000000291,16.494999999995343,16.770000000004075,16.639999999992142,17.27500000000873,16.02499999999418,16.81500000000233]",12,
-1,-1,RDK,200,45036,0.0-1.0-199.0,FALSE,"a,l",a,200,TRUE,200,1,180,0.5,2,-1,1,600,400,white,gray,3,2,2,16.71375,"[16.889999999999418,16.650000000001455,16.654999999998836,16.69000000000233,16.770000000004075,16.539999999993597,17.474999999998545,16.089999999996508,16.505000000004657,16.68000000000029,16.580000000001746,17.040000000000873]",12,