"rt","key_press","trial_type","trial_index","time_elapsed","internal_node_id","correct","choices","correct_choice","trial_duration","response_ends_trial","number_of_dots","number_of_sets","coherent_direction","coherence","dot_radius","dot_life","move_distance","aperture_width","aperture_height","dot_color","background_color","RDK_type","aperture_type","reinsert_type","frame_rate","frame_rate_array","number_of_frames"
"1691","13","text","0","1692","0.0-0.0","","","","","","","","","","","","","","","","","","","","","",""
"-1","-1","RDK","1","2924","0.0-1.0-0.0","false","a,l","a","200","true","200","1","180","0.5","2","-1","1","600","400","white","gray","3","2","2","16.678333333333324","[35.57499999999982,9.775000000000091,5.724999999999909,16.245000000000346,16.664999999999964,16.81999999999971,16.125,16.565000000000055,16.1550000000002,17.329999999999927,16.574999999999818,16.585000000000036]","12"
"-1","-1","RDK","2","3144","0.0-1.0-1.0","false","a,l","l","200","true","200","1","0","0.5","2","-1","1","600","400","white","gray","3","2","2","16.65291666666667","[16.769999999999982,31.38500000000022,2.299999999999727,16.920000000000073,16.170000000000073,16.5,17.11499999999978,16.715000000000146,16.335000000000036,16.539999999999964,15.675000000000182,17.409999999999854]","12"
"-1","-1","RDK","3","3356","0.0-1.0-2.0","false","a,l","l","200","true","200","1","0","0.5","2","-1","1","600","400","white","gray","3","2","2","16.68500000000002","[16.940000000000055,15.974999999999909,17.295000000000073,16.679999999999836,16.595000000000255,19.954999999999927,20.875,9.2800000000002,15.734999999999673,17.539999999999964,16.715000000000146,16.63500000000022]","12"
"-1","-1","RDK","4","3574","0.0-1.0-3.0","false","a,l","a","200","true","200","1","180","0.5","2","-1","1","600","400","white","gray","3","2","2","18.235000000000003","[16.429999999999836,17.325000000000273,16.574999999999818,16.6550000000002,16.63000000000011,16.684999999999945,33.33999999999969,16.990000000000236,16.574999999999818,16.720000000000255,16.659999999999854]","11"
"-1","-1","RDK","5","3790","0.0-1.0-4.0","false","a,l","l","200","true","200","1","0","0.5","2","-1","1","600","400","white","gray","3","2","2","16.697916666666668","[17.225000000000364,16.649999999999636,15.635000000000218,17.514999999999873,16.960000000000036,16.519999999999982,17.579999999999927,16.235000000000127,15.670000000000073,17.154999999999745,16.13500000000022,17.0949999999998]","12"
"-1","-1","RDK","6","4009","0.0-1.0-5.0","false","a,l","a","200","true","200","1","180","0.5","2","-1","1","600","400","white","gray","3","2","2","18.200454545454498","[16.829999999999927,16.315000000000055,16.9699999999998,16.59999999999991,16.65000000000009,15.889999999999873,34.48000000000002,16.490000000000236,16.545000000000073,16.84999999999991,16.58499999999958]","11"
"-1","-1","RDK","7","4225","0.0-1.0-6.0","false","a,l","l","200","true","200","1","0","0.5","2","-1","1","600","400","white","gray","3","2","2","18.23363636363642","[16.534999999999854,17.335000000000036,16.450000000000728,16.699999999999818,16.63500000000022,16.669999999999163,34.0600000000004,15.50500000000011,17.409999999999854,16.730000000000473,16.539999999999964]","11"
"-1","-1","RDK","8","4444","0.0-1.0-7.0","false","a,l","l","200","true","200","1","0","0.5","2","-1","1","600","400","white","gray","3","2","2","16.667916666666617","[17.13000000000011,15.549999999999272,17.920000000000073,15.88000000000011,17.110000000000582,16.729999999999563,15.920000000000073,17.399999999999636,16.625,16.670000000000073,15.700000000000728,17.3799999999992]","12"
"-1","-1","RDK","9","4659","0.0-1.0-8.0","false","a,l","l","200","true","200","1","0","0.5","2","-1","1","600","400","white","gray","3","2","2","16.6716666666667","[16.74499999999989,16.63500000000022,16.659999999999854,16.650000000000546,16.68499999999949,16.460000000000036,17.534999999999854,16.300000000000182,16.44000000000051,16.599999999999454,16.73999999999978,16.610000000000582]","12"
"-1","-1","RDK","10","4874","0.0-1.0-9.0","false","a,l","a","200","true","200","1","180","0.5","2","-1","1","600","400","white","gray","3","2","2","18.215454545454534","[16.149999999999636,17.480000000000473,16.73999999999978,16.545000000000073,16.704999999999927,15.649999999999636,37.4350000000004,13.015000000000327,17.44499999999971,16.44499999999971,16.76000000000022]","11"
"-1","-1","RDK","11","5091","0.0-1.0-10.0","false","a,l","l","200","true","200","1","0","0.5","2","-1","1","600","400","white","gray","3","2","2","18.225000000000033","[17.100000000000364,16.590000000000146,16.710000000000036,16.1899999999996,17.26000000000022,17.1899999999996,33.38000000000011,16.835000000000036,15.860000000000582,15.75,17.609999999999673]","11"
"-1","-1","RDK","12","5309","0.0-1.0-11.0","false","a,l","a","200","true","200","1","180","0.5","2","-1","1","600","400","white","gray","3","2","2","18.298181818181796","[18.06500000000051,16.514999999999418,16.600000000000364,16.61999999999989,16.61999999999989,16.125,34.375,16.274999999999636,16.69000000000051,15.74499999999989,17.649999999999636]","11"
"-1","-1","RDK","13","5525","0.0-1.0-12.0","false","a,l","l","200","true","200","1","0","0.5","2","-1","1","600","400","white","gray","3","2","2","18.234545454545447","[16.390000000000327,17.279999999999745,16.605000000000473,16.639999999999418,16.645000000000437,16.664999999999964,33.9399999999996,15.480000000000473,17.529999999999745,16.625,16.779999999999745]","11"
"-1","-1","RDK","14","5741","0.0-1.0-13.0","false","a,l","l","200","true","200","1","0","0.5","2","-1","1","600","400","white","gray","3","2","2","16.656666666666677","[25.0649999999996,17.145000000000437,9.074999999999818,15.284999999999854,17.110000000000582,17.024999999999636,16.409999999999854,16.74499999999989,16.780000000000655,16.420000000000073,16.56999999999971,16.25]","12"
"-1","-1","RDK","15","5956","0.0-1.0-14.0","false","a,l","a","200","true","200","1","180","0.5","2","-1","1","600","400","white","gray","3","2","2","17.270000000000024","[18.0600000000004,16.31999999999971,17.015000000000327,16.659999999999854,16.649999999999636,17.0600000000004,16.420000000000073,16.710000000000036,16.729999999999563,16.520000000000437,21.824999999999818]","11"
"-1","-1","RDK","16","6162","0.0-1.0-15.0","false","a,l","a","200","true","200","1","180","0.5","2","-1","1","600","400","white","gray","3","2","2","18.059999999999988","[14.914999999999964,16.414999999999964,17.350000000000364,16.795000000000073,16.484999999999673,16.654999999999745,34.289999999999964,15.845000000000255,15.895000000000437,17.42999999999938,16.585000000000036]","11"
"-1","-1","RDK","17","6377","0.0-1.0-16.0","false","a,l","l","200","true","200","1","0","0.5","2","-1","1","600","400","white","gray","3","2","2","18.23045454545453","[17.039999999999964,16.720000000000255,16.63499999999931,16.655000000000655,16.014999999999418,17.470000000000255,33.35999999999967,17.295000000000073,15.945000000000618,16.960000000000036,16.4399999999996]","11"
"-1","-1","RDK","18","6592","0.0-1.0-17.0","false","a,l","a","200","true","200","1","180","0.5","2","-1","1","600","400","white","gray","3","2","2","18.26954545454547","[17.63000000000011,16.774999999999636,16.460000000000036,16.664999999999964,16.68000000000029,16.835000000000036,34.289999999999964,16.18000000000029,16.13499999999931,16.525000000000546,16.789999999999964]","11"
"-1","-1","RDK","19","6808","0.0-1.0-18.0","false","a,l","a","200","true","200","1","180","0.5","2","-1","1","600","400","white","gray","3","2","2","16.719166666666677","[16.954999999999927,15.840000000000146,17.404999999999745,17.039999999999964,16.704999999999927,16.449999999999818,16.63500000000022,16.80500000000029,16.524999999999636,16.030000000000655,17.394999999999527,16.845000000000255]","12"
"-1","-1","RDK","20","7027","0.0-1.0-19.0","false","a,l","l","200","true","200","1","0","0.5","2","-1","1","600","400","white","gray","3","2","2","18.27090909090905","[17.75,16.88499999999931,16.345000000000255,34.39000000000033,15.734999999999673,16.63000000000011,16.76000000000022,16.74499999999989,16.394999999999527,16.660000000000764,16.68499999999949]","11"
"-1","-1","RDK","21","7239","0.0-1.0-20.0","false","a,l","a","200","true","200","1","180","0.5","2","-1","1","600","400","white","gray","3","2","2","16.773636363636385","[17.645000000000437,16.464999999999236,16.88000000000011,15.785000000000764,17.529999999999745,16.639999999999418,17.360000000000582,16.264999999999418,16.545000000000073,16.69000000000051,16.704999999999927]","11"
"-1","-1","RDK","22","7445","0.0-1.0-21.0","false","a,l","a","200","true","200","1","180","0.5","2","-1","1","600","400","white","gray","3","2","2","18.059999999999988","[15.730000000000473,16.61999999999989,15.574999999999818,17.534999999999854,16.890000000000327,16.5,35.57999999999993,14.364999999999782,16.675000000000182,15.840000000000146,17.349999999999454]","11"
"-1","-1","RDK","23","7660","0.0-1.0-22.0","false","a,l","l","200","true","200","1","0","0.5","2","-1","1","600","400","white","gray","3","2","2","18.239545454545475","[17.225000000000364,16.625,16.594999999999345,16.699999999999818,16.63000000000011,15.965000000000146,34.52000000000044,16.359999999999673,16.590000000000146,16.6899999999996,16.735000000000582]","11"
"-1","-1","RDK","24","7874","0.0-1.0-23.0","false","a,l","l","200","true","200","1","0","0.5","2","-1","1","600","400","white","gray","3","2","2","18.178636363636375","[16.485000000000582,17.295000000000073,16.669999999999163,16.63000000000011,16.63500000000022,16.675000000000182,33.595000000000255,16.449999999999818,16.795000000000073,15.524999999999636,17.210000000000036]","11"
"-1","-1","RDK","25","8089","0.0-1.0-24.0","false","a,l","a","200","true","200","1","180","0.5","2","-1","1","600","400","white","gray","3","2","2","16.690454545454568","[16.905000000000655,16.88500000000022,22.604999999999563,18.854999999999563,8.395000000000437,16.595000000000255,16.719999999999345,16.4950000000008,16.854999999999563,16.529999999999745,16.75500000000011]","11"
"-1","-1","RDK","26","8292","0.0-1.0-25.0","false","a,l","l","200","true","200","1","0","0.5","2","-1","1","600","400","white","gray","3","2","2","18.20500000000001","[16.07000000000062,17.534999999999854,16.61999999999898,16.665000000000873,16.674999999999272,16.625,35.840000000000146,14.085000000000946,16.954999999999927,16.514999999999418,16.670000000000073]","11"
"-1","-1","RDK","27","8508","0.0-1.0-26.0","false","a,l","l","200","true","200","1","0","0.5","2","-1","1","600","400","white","gray","3","2","2","18.1581818181818","[16.30500000000029,16.06999999999971,17.090000000000146,16.86999999999898,16.61499999999978,16.63500000000022,34.30500000000029,15.8700000000008,16.274999999999636,17.145000000000437,16.55999999999949]","11"
"-1","-1","RDK","28","8725","0.0-1.0-27.0","false","a,l","a","200","true","200","1","180","0.5","2","-1","1","600","400","white","gray","3","2","2","16.707083333333383","[17.80999999999949,16.69000000000051,16.61499999999978,15.860000000000582,17.039999999999054,17.195000000001528,17.36499999999978,15.93999999999869,16.780000000000655,16.545000000000073,16.7549999999992,15.890000000001237]","12"
"-1","-1","RDK","29","8943","0.0-1.0-28.0","false","a,l","a","200","true","200","1","180","0.5","2","-1","1","600","400","white","gray","3","2","2","18.223636363636285","[17.389999999999418,16.590000000000146,16.5,16.68499999999949,16.56000000000131,16.725000000000364,33.69999999999891,16.61499999999978,16.450000000000728,16.579999999999927,16.664999999999054]","11"
"-1","-1","RDK","30","9158","0.0-1.0-29.0","false","a,l","l","200","true","200","1","0","0.5","2","-1","1","600","400","white","gray","3","2","2","16.710416666666635","[17.174999999999272,15.975000000000364,22.18999999999869,19.360000000000582,9.1200000000008,16.639999999999418,15.7450000000008,17.584999999999127,16.719999999999345,16.095000000001164,17.329999999999927,16.590000000000146]","12"
"-1","-1","RDK","31","9378","0.0-1.0-30.0","false","a,l","a","200","true","200","1","180","0.5","2","-1","1","600","400","white","gray","3","2","2","18.136818181818274","[17.345000000001164,16.5,16.6299999999992,16.700000000000728,16.25,36.51000000000022,13.954999999999927,16.149999999999636,17.1299999999992,16.67500000000109,15.659999999999854]","11"
"-1","-1","RDK","32","9593","0.0-1.0-31.0","false","a,l","l","200","true","200","1","0","0.5","2","-1","1","600","400","white","gray","3","2","2","18.276363636363552","[17.454999999999927,16.61499999999978,16.674999999999272,16.659999999999854,16.640000000001237,16.69499999999971,33.784999999999854,17.270000000000437,15.724999999998545,16.63500000000022,16.88500000000022]","11"
"-1","-1","RDK","33","9810","0.0-1.0-32.0","false","a,l","a","200","true","200","1","180","0.5","2","-1","1","600","400","white","gray","3","2","2","18.260454545454525","[17.290000000000873,15.969999999999345,17.2549999999992,16.700000000000728,16.55999999999949,16.649999999999636,34.07000000000153,16.084999999999127,15.889999999999418,17.485000000000582,16.909999999999854]","11"
"-1","-1","RDK","34","10028","0.0-1.0-33.0","false","a,l","a","200","true","200","1","180","0.5","2","-1","1","600","400","white","gray","3","2","2","18.162727272727352","[17.105000000001382,16.420000000000073,16.93999999999869,16.610000000000582,16.1299999999992,17.200000000000728,34.00500000000102,16.1299999999992,16.56999999999971,16.80999999999949,15.8700000000008]","11"
"-1","-1","RDK","35","10243","0.0-1.0-34.0","false","a,l","a","200","true","200","1","180","0.5","2","-1","1","600","400","white","gray","3","2","2","16.735416666666726","[17.69000000000051,16.459999999999127,16.670000000000073,16.645000000000437,16.600000000000364,16.75,15.869999999998981,26.75500000000102,7.4099999999998545,16.664999999999054,15.950000000000728,17.360000000000582]","12"
"-1","-1","RDK","36","10458","0.0-1.0-35.0","false","a,l","l","200","true","200","1","0","0.5","2","-1","1","600","400","white","gray","3","2","2","18.235909090909033","[17.01000000000022,15.964999999998327,17.415000000000873,36.08499999999913,13.970000000001164,16.68000000000029,16.69499999999971,16.61999999999898,15.9900000000016,17.474999999998545,16.69000000000051]","11"
"-1","-1","RDK","37","10675","0.0-1.0-36.0","false","a,l","l","200","true","200","1","0","0.5","2","-1","1","600","400","white","gray","3","2","2","18.144090909090995","[17.13500000000022,16.640000000001237,16.659999999999854,16.69499999999971,16.07499999999891,17.284999999999854,35.81500000000051,14.790000000000873,16.174999999999272,16.659999999999854,15.655000000000655]","11"
"-1","-1","RDK","38","10893","0.0-1.0-37.0","false","a,l","a","200","true","200","1","180","0.5","2","-1","1","600","400","white","gray","3","2","2","18.27954545454552","[17.789999999999054,16.55500000000029,16.520000000000437,16.710000000000946,16.584999999999127,16.68000000000029,33.654999999998836,17.330000000001746,15.824999999998909,16.665000000000873,16.76000000000022]","11"
"-1","-1","RDK","39","11112","0.0-1.0-38.0","false","a,l","a","200","true","200","1","180","0.5","2","-1","1","600","400","white","gray","3","2","2","18.247727272727307","[23.100000000000364,9.954999999999927,17.43000000000029,16.81500000000051,16.475000000000364,16.709999999999127,34.32500000000073,15.920000000000073,15.859999999998763,17.76000000000022,16.375]","11"
"-1","-1","RDK","40","11329","0.0-1.0-39.0","false","a,l","a","200","true","200","1","180","0.5","2","-1","1","600","400","white","gray","3","2","2","18.226818181818256","[17.020000000000437,16.6200000000008,16.639999999999418,16.729999999999563,15.875,17.2450000000008,34.08499999999913,16.100000000000364,16.540000000000873,16.729999999999563,16.909999999999854]","11"
"-1","-1","RDK","41","11543","0.0-1.0-40.0","false","a,l","a","200","true","200","1","180","0.5","2","-1","1","600","400","white","gray","3","2","2","16.728750000000066","[17.63500000000022,16.414999999999054,16.695000000001528,16.679999999998472,16.590000000000146,16.670000000000073,15.659999999999854,17.31500000000051,17.090000000000146,16.719999999999345,16.585000000000946,16.69000000000051]","12"
"-1","-1","RDK","42","11759","0.0-1.0-41.0","false","a,l","a","200","true","200","1","180","0.5","2","-1","1","600","400","white","gray","3","2","2","16.712499999999938","[17.144999999998618,15.725000000000364,17.415000000000873,16.894999999998618,16.63000000000102,16.48999999999978,17.735000000000582,15.93499999999949,16.539999999999054,15.81500000000051,17.420000000000073,16.80500000000029]","12"
"-1","-1","RDK","43","11977","0.0-1.0-42.0","false","a,l","a","200","true","200","1","180","0.5","2","-1","1","600","400","white","gray","3","2","2","18.237727272727252","[17.154999999998836,16.645000000000437,16.69000000000051,16.674999999999272,15.975000000000364,17.36499999999978,36.05500000000029,14.6200000000008,16.154999999998836,16.81999999999971,16.460000000000946]","11"
"-1","-1","RDK","44","12194","0.0-1.0-43.0","false","a,l","a","200","true","200","1","180","0.5","2","-1","1","600","400","white","gray","3","2","2","18.28409090909091","[17.844999999999345,16.56500000000051,16.61499999999978,16.625,16.780000000000655,16.520000000000437,33.74499999999898,17.225000000000364,15.889999999999418,16.534999999999854,16.780000000000655]","11"
"-1","-1","RDK","45","12410","0.0-1.0-44.0","false","a,l","a","200","true","200","1","180","0.5","2","-1","1","600","400","white","gray","3","2","2","16.728749999999916","[17.264999999999418,15.575000000000728,17.61499999999978,16.76000000000022,16.789999999999054,16.585000000000946,17.69999999999891,16.204999999999927,16.485000000000582,15.69000000000051,17.289999999999054,16.784999999999854]","12"
"-1","-1","RDK","46","12627","0.0-1.0-45.0","false","a,l","l","200","true","200","1","0","0.5","2","-1","1","600","400","white","gray","3","2","2","18.236363636363503","[17.019999999998618,16.600000000000364,16.774999999999636,16.610000000000582,15.920000000000073,17.38500000000022,33.74499999999898,17,16.145000000000437,16.68000000000029,16.719999999999345]","11"
"-1","-1","RDK","47","12843","0.0-1.0-46.0","false","a,l","a","200","true","200","1","180","0.5","2","-1","1","600","400","white","gray","3","2","2","16.751666666666704","[17.93000000000029,16.424999999999272,16.625,16.63000000000102,16.639999999999418,16.68499999999949,15.659999999999854,17.210000000000946,17.229999999999563,16.69499999999971,16.594999999999345,16.695000000001528]","12"
"-1","-1","RDK","48","13058","0.0-1.0-47.0","false","a,l","l","200","true","200","1","0","0.5","2","-1","1","600","400","white","gray","3","2","2","16.734545454545447","[17.13500000000022,15.68499999999949,17.345000000001164,17.019999999998618,16.63500000000022,16.150000000001455,17.8849999999984,16.020000000000437,16.7450000000008,15.774999999999636,17.68499999999949]","11"
"-1","-1","RDK","49","13264","0.0-1.0-48.0","false","a,l","l","200","true","200","1","0","0.5","2","-1","1","600","400","white","gray","3","2","2","18.04863636363635","[15.300000000001091,16.76000000000022,16.56499999999869,16.55000000000109,16.654999999998836,15.8650000000016,34.92499999999927,16.090000000000146,16.68499999999949,16.479999999999563,16.659999999999854]","11"
"-1","-1","RDK","50","13478","0.0-1.0-49.0","false","a,l","a","200","true","200","1","180","0.5","2","-1","1","600","400","white","gray","3","2","2","18.261363636363637","[16.375,17.6200000000008,16.514999999999418,16.645000000000437,16.610000000000582,16.670000000000073,33.404999999998836,16.715000000000146,16.530000000000655,16.88500000000022,16.904999999998836]","11"
"-1","-1","RDK","51","13694","0.0-1.0-50.0","false","a,l","l","200","true","200","1","0","0.5","2","-1","1","600","400","white","gray","3","2","2","18.211818181818174","[17.079999999999927,16.56500000000051,15.904999999998836,17.090000000000146,17.100000000000364,16.659999999999854,33.5,17.05999999999949,16.18000000000029,15.755000000001019,17.43499999999949]","11"
"-1","-1","RDK","52","13912","0.0-1.0-51.0","false","a,l","a","200","true","200","1","180","0.5","2","-1","1","600","400","white","gray","3","2","2","16.704999999999927","[16.959999999999127,16.764999999999418,16.605000000001382,16.94999999999891,16.604999999999563,15.625,17.650000000001455,16.729999999999563,16.534999999999854,16.789999999999054,16.56000000000131,16.68499999999949]","12"
"-1","-1","RDK","53","14127","0.0-1.0-52.0","false","a,l","a","200","true","200","1","180","0.5","2","-1","1","600","400","white","gray","3","2","2","16.697916666666668","[22.56500000000051,11.260000000000218,16.6349999999984,16.525000000001455,18.049999999999272,22.710000000000946,9.334999999999127,16.549999999999272,16.085000000000946,17.360000000000582,16.609999999998763,16.69000000000051]","12"
"-1","-1","RDK","54","14343","0.0-1.0-53.0","false","a,l","a","200","true","200","1","180","0.5","2","-1","1","600","400","white","gray","3","2","2","18.221363636363755","[17.409999999999854,16.790000000000873,16.56999999999971,16.18000000000029,17.170000000000073,35.92499999999927,14.075000000000728,16.610000000000582,16.714999999998327,15.655000000000655,17.335000000000946]","11"
"-1","-1","RDK","55","14558","0.0-1.0-54.0","false","a,l","l","200","true","200","1","0","0.5","2","-1","1","600","400","white","gray","3","2","2","18.396000000000093","[17.18000000000029,15.639999999999418,17.610000000000582,15.659999999999854,17.63500000000022,15.854999999999563,34.970000000001164,16.170000000000073,16.484999999998763,16.75500000000102]","10"
"-1","-1","RDK","56","14761","0.0-1.0-55.0","false","a,l","l","200","true","200","1","0","0.5","2","-1","1","600","400","white","gray","3","2","2","16.589166666666642","[15.625,15.864999999999782,17.405000000000655,16.93000000000029,16.454999999999927,16.894999999998618,16.525000000001455,16.639999999999418,16.579999999999927,16.1299999999992,17.43000000000029,16.590000000000146]","12"
"-1","-1","RDK","57","14977","0.0-1.0-56.0","false","a,l","a","200","true","200","1","180","0.5","2","-1","1","600","400","white","gray","3","2","2","16.622916666666697","[17.204999999999927,16.594999999999345,16.73999999999978,16.56999999999971,16.105000000001382,17.11999999999898,32.149999999999636,2.1150000000016007,16.344999999999345,16.18000000000029,16.86499999999978,15.485000000000582]","12"
"-1","-1","RDK","58","15194","0.0-1.0-57.0","false","a,l","a","200","true","200","1","180","0.5","2","-1","1","600","400","white","gray","3","2","2","16.73124999999997","[17.73999999999978,16.340000000000146,16.655000000000655,16.664999999999054,16.650000000001455,16.68999999999869,15.675000000001091,17.409999999999854,16.98999999999978,16.670000000000073,16.584999999999127,16.704999999999927]","12"
"-1","-1","RDK","59","15411","0.0-1.0-58.0","false","a,l","a","200","true","200","1","180","0.5","2","-1","1","600","400","white","gray","3","2","2","16.727499999999964","[17.159999999999854,15.844999999999345,17.3700000000008,16.834999999999127,16.585000000000946,16.104999999999563,18.110000000000582,15.8799999999992,16.7450000000008,16.094999999999345,17.36499999999978,16.63500000000022]","12"
"-1","-1","RDK","60","15630","0.0-1.0-59.0","false","a,l","l","200","true","200","1","0","0.5","2","-1","1","600","400","white","gray","3","2","2","16.622083333333347","[17.125,16.735000000000582,16.539999999999054,16.954999999999927,15.795000000000073,17.375,16.55000000000109,16.625,16.68499999999949,16.225000000000364,17.06500000000051,15.789999999999054]","12"
"-1","-1","RDK","61","15845","0.0-1.0-60.0","false","a,l","l","200","true","200","1","0","0.5","2","-1","1","600","400","white","gray","3","2","2","16.755416666666708","[17.600000000000364,16.780000000000655,16.48999999999978,16.664999999999054,16.695000000001528,16.670000000000073,31.099999999998545,2.2300000000013824,16.93999999999869,16.55500000000029,16.69000000000051,16.649999999999636]","12"
"-1","-1","RDK","62","16060","0.0-1.0-61.0","false","a,l","l","200","true","200","1","0","0.5","2","-1","1","600","400","white","gray","3","2","2","16.708333333333332","[17.270000000000437,15.680000000000291,17.659999999999854,16.209999999999127,16.854999999999563,16.960000000000946,16.639999999999418,16.479999999999563,16.655000000000655,15.854999999999563,17.399999999999636,16.835000000000946]","12"
"-1","-1","RDK","63","16280","0.0-1.0-62.0","false","a,l","a","200","true","200","1","180","0.5","2","-1","1","600","400","white","gray","3","2","2","16.71708333333345","[17.070000000001528,16.719999999999345,16.590000000000146,16.719999999999345,15.9950000000008,17.459999999999127,31.015000000001237,2.0349999999998545,17.5,16.139999999999418,16.68499999999949,16.67500000000109]","12"
"-1","-1","RDK","64","16495","0.0-1.0-63.0","false","a,l","l","200","true","200","1","0","0.5","2","-1","1","600","400","white","gray","3","2","2","16.723333333333358","[17.529999999998836,16.45499999999811,16.765000000003056,16.6349999999984,16.61999999999898,16.710000000002765,15.614999999997963,17.30500000000029,17.084999999999127,16.720000000001164,16.575000000000728,16.665000000000873]","12"
"-1","-1","RDK","65","16712","0.0-1.0-64.0","false","a,l","a","200","true","200","1","180","0.5","2","-1","1","600","400","white","gray","3","2","2","16.717499999999745","[17.024999999997817,15.744999999998981,17.340000000000146,16.915000000000873,16.6150000000016,16.290000000000873,17.479999999999563,16.43499999999767,16.600000000002183,15.895000000000437,17.609999999996944,16.659999999999854]","12"
"-1","-1","RDK","66","16927","0.0-1.0-65.0","false","a,l","l","200","true","200","1","0","0.5","2","-1","1","600","400","white","gray","3","2","2","16.69500000000001","[17.150000000001455,16.609999999996944,16.725000000002183,16.610000000000582,16.145000000000437,17.544999999998254,17.735000000000582,19.294999999998254,12.575000000000728,16.580000000001746,16.69499999999971,16.674999999999272]","12"
"-1","-1","RDK","67","17145","0.0-1.0-66.0","false","a,l","a","200","true","200","1","180","0.5","2","-1","1","600","400","white","gray","3","2","2","16.76250000000012","[17.75500000000102,16.529999999998836,16.830000000001746,16.610000000000582,16.669999999998254,16.43500000000131,17.854999999999563,15.959999999999127,16.520000000000437,16.784999999999854,16.654999999998836,16.54500000000189]","12"
"-1","-1","RDK","68","17362","0.0-1.0-67.0","false","a,l","a","200","true","200","1","180","0.5","2","-1","1","600","400","white","gray","3","2","2","16.732500000000073","[17.159999999999854,15.784999999999854,17.235000000000582,15.930000000000291,17.899999999997817,16.450000000000728,18.18999999999869,15.535000000003492,16.20499999999811,16.11999999999898,17.150000000001455,17.13000000000102]","12"
"-1","-1","RDK","69","17580","0.0-1.0-68.0","false","a,l","a","200","true","200","1","180","0.5","2","-1","1","600","400","white","gray","3","2","2","16.69333333333331","[17.135000000002037,16.534999999999854,16.68499999999767,16.780000000002474,15.959999999999127,17.349999999998545,16.725000000002183,16.450000000000728,16.649999999997817,16.69499999999971,16.655000000002474,16.69999999999709]","12"
"-1","-1","RDK","70","17793","0.0-1.0-69.0","false","a,l","l","200","true","200","1","0","0.5","2","-1","1","600","400","white","gray","3","2","2","16.761363636363637","[17.764999999999418,16.659999999999854,18.18500000000131,15.829999999998108,15.93500000000131,16.654999999998836,16.709999999999127,16.135000000002037,16.534999999999854,17.36999999999898,16.595000000001164]","11"
"-1","-1","RDK","71","17994","0.0-1.0-70.0","false","a,l","l","200","true","200","1","0","0.5","2","-1","1","600","400","white","gray","3","2","2","18.17363636363635","[16.69999999999709,16.705000000001746,15.755000000001019,17.209999999999127,17.084999999999127,15.845000000001164,36.86000000000058,13.8849999999984,16.715000000000146,15.764999999999418,17.385000000002037]","11"
"-1","-1","RDK","72","18212","0.0-1.0-71.0","false","a,l","l","200","true","200","1","0","0.5","2","-1","1","600","400","white","gray","3","2","2","18.23545454545456","[16.090000000000146,17.80500000000029,16.56499999999869,16.640000000003056,16.679999999996653,15.81000000000131,34.7400000000016,16.294999999998254,15.549999999999272,17.905000000002474,16.5099999999984]","11"
"-1","-1","RDK","73","18428","0.0-1.0-72.0","false","a,l","l","200","true","200","1","0","0.5","2","-1","1","600","400","white","gray","3","2","2","16.764166666666824","[17.340000000000146,17.3650000000016,16.68000000000029,16.639999999999418,16.770000000000437,16.639999999999418,17.790000000000873,15.93999999999869,15.470000000001164,17.239999999997963,16.625,16.67000000000189]","12"
"-1","-1","RDK","74","18645","0.0-1.0-73.0","false","a,l","a","200","true","200","1","180","0.5","2","-1","1","600","400","white","gray","3","2","2","18.228181818182005","[17.1150000000016,16.414999999997235,16.88000000000102,16.125,17.31000000000131,16.645000000000437,33.340000000000146,17.234999999996944,16.165000000000873,15.700000000000728,17.580000000001746]","11"
"-1","-1","RDK","75","18863","0.0-1.0-74.0","false","a,l","l","200","true","200","1","0","0.5","2","-1","1","600","400","white","gray","3","2","2","16.70041666666657","[17.299999999999272,15.529999999998836,17.6150000000016,16.664999999997235,17.075000000000728,15.565000000002328,17.179999999996653,16.900000000001455,16.659999999999854,16.599999999998545,16.69000000000233,16.625]","12"
"-1","-1","RDK","76","19079","0.0-1.0-75.0","false","a,l","a","200","true","200","1","180","0.5","2","-1","1","600","400","white","gray","3","2","2","16.712083333333187","[16.274999999997817,17.625,16.534999999999854,16.674999999999272,16.55000000000291,16.219999999997526,17.645000000000437,16.354999999999563,16.014999999999418,17.455000000001746,16.6349999999984,16.56000000000131]","12"
"-1","-1","RDK","77","19296","0.0-1.0-76.0","false","a,l","l","200","true","200","1","0","0.5","2","-1","1","600","400","white","gray","3","2","2","18.215454545454453","[17.11999999999898,16.595000000001164,16.854999999999563,16.090000000000146,17.215000000000146,16.669999999998254,36.25500000000102,14.205000000001746,16.200000000000728,15.819999999999709,17.344999999997526]","11"
"-1","-1","RDK","78","19513","0.0-1.0-77.0","false","a,l","l","200","true","200","1","0","0.5","2","-1","1","600","400","white","gray","3","2","2","16.690416666666653","[23.139999999999418,10.505000000001019,16.625,16.840000000000146,16.665000000000873,15.649999999997817,17.31000000000131,16.889999999999418,16.63000000000102,16.61999999999898,16.56999999999971,16.840000000000146]","12"
"-1","-1","RDK","79","19729","0.0-1.0-78.0","false","a,l","l","200","true","200","1","0","0.5","2","-1","1","600","400","white","gray","3","2","2","16.72458333333331","[16.279999999998836,17.4900000000016,16.75499999999738,16.590000000000146,16.6150000000016,16.709999999999127,31,2.0100000000020373,16.459999999999127,17.56000000000131,16.56999999999971,16.654999999998836]","12"
"-1","-1","RDK","80","19948","0.0-1.0-79.0","false","a,l","a","200","true","200","1","180","0.5","2","-1","1","600","400","white","gray","3","2","2","16.675833333333383","[17.040000000000873,16.715000000000146,16.62999999999738,16.350000000002183,17.149999999997817,16.640000000003056,17.729999999999563,15.969999999997526,15.465000000000146,17,16.04500000000189,17.375]","12"
"-1","-1","RDK","81","20163","0.0-1.0-80.0","false","a,l","l","200","true","200","1","0","0.5","2","-1","1","600","400","white","gray","3","2","2","16.70083333333332","[17.24500000000262,15.544999999998254,17.6150000000016,16.645000000000437,16.12999999999738,16.159999999999854,17.43000000000029,16.99500000000262,16.659999999999854,16.599999999998545,15.825000000000728,17.55999999999767]","12"
"-1","-1","RDK","82","20379","0.0-1.0-81.0","false","a,l","a","200","true","200","1","180","0.5","2","-1","1","600","400","white","gray","3","2","2","18.238636363636363","[16.209999999999127,17.489999999997963,16.225000000002183,17.239999999997963,32.42000000000189,17.614999999997963,16.655000000002474,16.07999999999811,17.549999999999272,16.55000000000291,16.590000000000146]","11"
"-1","-1","RDK","83","20594","0.0-1.0-82.0","false","a,l","a","200","true","200","1","180","0.5","2","-1","1","600","400","white","gray","3","2","2","18.16545454545452","[17.06499999999869,15.869999999998981,17.385000000002037,16.029999999998836,17.334999999999127,16.56000000000131,36.30500000000029,13.709999999999127,16.6150000000016,16.735000000000582,16.209999999999127]","11"
"-1","-1","RDK","84","20814","0.0-1.0-83.0","false","a,l","a","200","true","200","1","180","0.5","2","-1","1","600","400","white","gray","3","2","2","18.242272727272805","[17.139999999999418,16.68500000000131,16.584999999999127,16.674999999999272,16.625,15.725000000002183,35.034999999999854,16.18499999999767,16.54500000000189,16.81999999999971,16.645000000000437]","11"
"-1","-1","RDK","85","21030","0.0-1.0-84.0","false","a,l","a","200","true","200","1","180","0.5","2","-1","1","600","400","white","gray","3","2","2","18.241818181818168","[16.36999999999898,17.50500000000102,16.799999999999272,16.625,16.400000000001455,16.654999999998836,34.16500000000087,15.43500000000131,17.219999999997526,16.970000000001164,16.514999999999418]","11"
"-1","-1","RDK","86","21246","0.0-1.0-85.0","false","a,l","a","200","true","200","1","180","0.5","2","-1","1","600","400","white","gray","3","2","2","18.1668181818181","[16.970000000001164,16.549999999999272,16.709999999999127,15.950000000000728,17.06000000000131,16.924999999999272,33.6349999999984,16.485000000000582,16.6150000000016,16.770000000000437,16.164999999997235]","11"
"-1","-1","RDK","87","21464","0.0-1.0-86.0","false","a,l","l","200","true","200","1","0","0.5","2","-1","1","600","400","white","gray","3","2","2","16.682500000000193","[17.00500000000102,16.56000000000131,16.61999999999898,16.674999999999272,16.625,15.68999999999869,17.31000000000131,17.05500000000029,16.674999999999272,16.600000000002183,16.724999999998545,16.650000000001455]","12"
"-1","-1","RDK","88","21680","0.0-1.0-87.0","false","a,l","l","200","true","200","1","0","0.5","2","-1","1","600","400","white","gray","3","2","2","16.734166666666777","[16.145000000000437,17.455000000001746,16.864999999997963,16.655000000002474,16.6349999999984,16.44499999999971,17.514999999999418,16.31000000000131,15.709999999999127,17.470000000001164,16.904999999998836,16.700000000000728]","12"
"-1","-1","RDK","89","21896","0.0-1.0-88.0","false","a,l","l","200","true","200","1","0","0.5","2","-1","1","600","400","white","gray","3","2","2","18.210454545454756","[17.040000000000873,16.654999999998836,16.7400000000016,15.979999999999563,17.36999999999898,16.729999999999563,36.11000000000058,14.334999999999127,16.155000000002474,17.029999999998836,16.17000000000189]","11"
"-1","-1","RDK","90","22114","0.0-1.0-89.0","false","a,l","l","200","true","200","1","0","0.5","2","-1","1","600","400","white","gray","3","2","2","18.2081818181819","[17.200000000000728,16.474999999998545,15.970000000001164,17.235000000000582,16.61999999999898,16.69499999999971,34.20999999999913,16.04500000000189,16.469999999997526,17,16.37000000000262]","11"
"-1","-1","RDK","91","22330","0.0-1.0-90.0","false","a,l","a","200","true","200","1","180","0.5","2","-1","1","600","400","white","gray","3","2","2","18.221363636363755","[15.93500000000131,17.44499999999971,16.875,16.11999999999898,16.850000000002183,17.049999999999272,33.72999999999956,15.5,17.43000000000029,16.950000000000728,16.549999999999272]","11"
"-1","-1","RDK","92","22550","0.0-1.0-91.0","false","a,l","a","200","true","200","1","180","0.5","2","-1","1","600","400","white","gray","3","2","2","18.205000000000094","[22.715000000000146,11.119999999998981,16.640000000003056,15.809999999997672,17.31999999999971,16.915000000000873,33.31499999999869,16.950000000000728,16.43000000000029,16.590000000000146,16.450000000000728]","11"
"-1","-1","RDK","93","22764","0.0-1.0-92.0","false","a,l","a","200","true","200","1","180","0.5","2","-1","1","600","400","white","gray","3","2","2","16.66916666666687","[16.885000000002037,16.424999999999272,16.720000000001164,16.659999999999854,16.56499999999869,16.729999999999563,16.11999999999898,17.210000000002765,16.659999999999854,16.69499999999971,16.674999999999272,16.68500000000131]","12"
"-1","-1","RDK","94","22980","0.0-1.0-93.0","false","a,l","l","200","true","200","1","0","0.5","2","-1","1","600","400","white","gray","3","2","2","16.71916666666675","[16.040000000000873,17.42000000000189,17.00499999999738,16.69499999999971,16.31000000000131,16.49499999999898,18.06999999999971,15.80000000000291,15.799999999999272,17.3849999999984,17.150000000001455,16.459999999999127]","12"
"-1","-1","RDK","95","23199","0.0-1.0-94.0","false","a,l","a","200","true","200","1","180","0.5","2","-1","1","600","400","white","gray","3","2","2","18.131818181818247","[17,16.61999999999898,16.635000000002037,15.744999999998981,17.345000000001164,16.875,36.31499999999869,13.68500000000131,16.599999999998545,16.69499999999971,15.93500000000131]","11"
"-1","-1","RDK","96","23414","0.0-1.0-95.0","false","a,l","l","200","true","200","1","0","0.5","2","-1","1","600","400","white","gray","3","2","2","18.23090909090884","[17.114999999997963,16.709999999999127,16.585000000002765,16.70499999999811,15.900000000001455,17.399999999997817,33.91500000000087,16.220000000001164,16.62999999999738,16.75,16.610000000000582]","11"
"-1","-1","RDK","97","23631","0.0-1.0-96.0","false","a,l","a","200","true","200","1","180","0.5","2","-1","1","600","400","white","gray","3","2","2","18.252727272727167","[17.264999999999418,16.5,16.86999999999898,16.095000000001164,17.32499999999709,16.5,34.470000000001164,14.770000000000437,17.279999999998836,16.905000000002474,16.799999999999272]","11"
"-1","-1","RDK","98","23847","0.0-1.0-97.0","false","a,l","l","200","true","200","1","0","0.5","2","-1","1","600","400","white","gray","3","2","2","18.17136363636382","[16.979999999999563,16.534999999999854,16.875,15.62000000000262,17.469999999997526,16.834999999999127,33.375,17.235000000000582,16.100000000002183,16.99499999999898,15.8650000000016]","11"
"-1","-1","RDK","99","24064","0.0-1.0-98.0","false","a,l","l","200","true","200","1","0","0.5","2","-1","1","600","400","white","gray","3","2","2","16.702500000000025","[17.3550000000032,15.569999999999709,17.489999999997963,16.610000000000582,16.650000000001455,16.724999999998545,16.145000000000437,17.299999999999272,16.575000000000728,16.709999999999127,16.604999999999563,16.69499999999971]","12"
"-1","-1","RDK","100","24281","0.0-1.0-99.0","false","a,l","l","200","true","200","1","0","0.5","2","-1","1","600","400","white","gray","3","2","2","16.72375000000011","[17.11999999999898,16.210000000002765,17.159999999999854,16.654999999998836,16.6349999999984,16.195000000003347,16.889999999999418,16.145000000000437,16.55999999999767,17.415000000000873,16.959999999999127,16.7400000000016]","12"
"-1","-1","RDK","101","24500","0.0-1.0-100.0","false","a,l","a","200","true","200","1","180","0.5","2","-1","1","600","400","white","gray","3","2","2","16.613333333333383","[16.665000000000873,16.915000000000873,16.7599999999984,15.630000000001019,17.709999999999127,16.705000000001746,16.49499999999898,16.659999999999854,16.68500000000131,16.625,16.68499999999767,15.825000000000728]","12"
"-1","-1","RDK","102","24715","0.0-1.0-101.0","false","a,l","l","200","true","200","1","0","0.5","2","-1","1","600","400","white","gray","3","2","2","16.722500000000156","[17.275000000001455,16.68000000000029,16.595000000001164,16.654999999998836,16.700000000000728,16.669999999998254,31.174999999999272,1.6850000000013097,18.095000000001164,15.8849999999984,16.549999999999272,16.705000000001746]","12"
"-1","-1","RDK","103","24931","0.0-1.0-102.0","false","a,l","l","200","true","200","1","0","0.5","2","-1","1","600","400","white","gray","3","2","2","18.219999999999843","[17.154999999998836,16.17000000000189,17.0099999999984,16.580000000001746,16.594999999997526,16.665000000000873,34.19000000000233,15.044999999998254,17.31499999999869,17.125,16.56999999999971]","11"
"-1","-1","RDK","104","25147","0.0-1.0-103.0","false","a,l","l","200","true","200","1","0","0.5","2","-1","1","600","400","white","gray","3","2","2","16.70083333333332","[17.735000000000582,16.530000000002474,16.864999999997963,15.665000000000873,17.36999999999898,16.94000000000233,16.614999999997963,17.404999999998836,16.510000000002037,16.270000000000437,16.700000000000728,15.804999999996653]","12"
"-1","-1","RDK","105","25365","0.0-1.0-104.0","false","a,l","l","200","true","200","1","0","0.5","2","-1","1","600","400","white","gray","3","2","2","16.691666666666606","[17.18999999999869,16.549999999999272,16.12000000000262,17.354999999999563,16.37999999999738,16.765000000003056,15.849999999998545,17.44499999999971,16.639999999999418,16.729999999999563,16.63000000000102,16.645000000000437]","12"
"-1","-1","RDK","106","25579","0.0-1.0-105.0","false","a,l","a","200","true","200","1","180","0.5","2","-1","1","600","400","white","gray","3","2","2","16.714999999999815","[17.11999999999898,16.080000000001746,17.334999999999127,16.549999999999272,16.74499999999898,15.725000000002183,31.75499999999738,2.335000000002765,16.789999999997235,16.220000000001164,17.209999999999127]","11"
"-1","-1","RDK","107","25781","0.0-1.0-106.0","false","a,l","l","200","true","200","1","0","0.5","2","-1","1","600","400","white","gray","3","2","2","18.187727272727155","[19.43500000000131,13.770000000000437,16.68999999999869,16.24499999999898,35.66500000000087,14.869999999998981,16.764999999999418,16.715000000000146,15.815000000002328,17.43499999999767,16.659999999999854]","11"
"-1","-1","RDK","108","25998","0.0-1.0-107.0","false","a,l","l","200","true","200","1","0","0.5","2","-1","1","600","400","white","gray","3","2","2","18.298181818182044","[17.799999999999272,16.850000000002183,16.68500000000131,16.50499999999738,16.56999999999971,16.69000000000233,33.169999999998254,17.340000000000146,16.31000000000131,16.950000000000728,16.409999999999854]","11"
"-1","-1","RDK","109","26215","0.0-1.0-108.0","false","a,l","l","200","true","200","1","0","0.5","2","-1","1","600","400","white","gray","3","2","2","18.23681818181814","[17.219999999997526,16.674999999999272,15.890000000003056,17.36999999999898,16.540000000000873,16.719999999997526,33.905000000002474,16.19999999999709,16.570000000003347,16.32999999999811,17.18500000000131]","11"
"-1","-1","RDK","110","26433","0.0-1.0-109.0","false","a,l","l","200","true","200","1","0","0.5","2","-1","1","600","400","white","gray","3","2","2","18.234545454545284","[17.215000000000146,16.639999999999418,16.590000000000146,16.590000000000146,15.584999999999127,17.31000000000131,34.23999999999796,16.264999999999418,16.69000000000233,16.709999999999127,16.74499999999898]","11"
"-1","-1","RDK","111","26648","0.0-1.0-110.0","false","a,l","a","200","true","200","1","180","0.5","2","-1","1","600","400","white","gray","3","2","2","18.281363636363743","[17.705000000001746,16.895000000000437,16.485000000000582,16.639999999999418,16.625,16.639999999999418,33.39500000000044,17.06499999999869,16.56999999999971,16.55000000000291,16.524999999997817]","11"
"-1","-1","RDK","112","26863","0.0-1.0-111.0","false","a,l","a","200","true","200","1","180","0.5","2","-1","1","600","400","white","gray","3","2","2","16.694583333333565","[17.12000000000262,16.584999999999127,15.919999999998254,17.354999999999563,16.700000000000728,16.68000000000029,16.6150000000016,16.68000000000029,16.669999999998254,16.659999999999854,16.075000000000728,17.275000000001455]","12"
"-1","-1","RDK","113","27081","0.0-1.0-112.0","false","a,l","a","200","true","200","1","180","0.5","2","-1","1","600","400","white","gray","3","2","2","16.719999999999953","[17.05500000000029,16.69999999999709,16.665000000000873,16.63000000000102,16.669999999998254,15.909999999999854,18.415000000000873,15.915000000000873,16.595000000001164,16.654999999998836,16.625,16.80500000000029]","12"
"-1","-1","RDK","114","27298","0.0-1.0-113.0","false","a,l","l","200","true","200","1","0","0.5","2","-1","1","600","400","white","gray","3","2","2","16.77624999999989","[17.889999999999418,16.94499999999971,16.524999999997817,16.635000000002037,16.584999999999127,16.779999999998836,17.595000000001164,18.6150000000016,13.659999999999854,16.82499999999709,15.790000000000873,17.470000000001164]","12"
"-1","-1","RDK","115","27513","0.0-1.0-114.0","false","a,l","a","200","true","200","1","180","0.5","2","-1","1","600","400","white","gray","3","2","2","18.342499999999927","[17.099999999998545,16.700000000000728,15.914999999997235,17.375,16.69000000000233,16.729999999999563,34.11000000000058,15.944999999999709,16.729999999999563,16.13000000000102]","10"
"-1","-1","RDK","116","27716","0.0-1.0-115.0","false","a,l","a","200","true","200","1","180","0.5","2","-1","1","600","400","white","gray","3","2","2","16.590833333333347","[15.450000000000728,17.034999999999854,16.81000000000131,16.604999999999563,16.639999999999418,16.68999999999869,16.354999999999563,16.92500000000291,16.61999999999898,16.599999999998545,16.63000000000102,16.729999999999563]","12"
"-1","-1","RDK","117","27930","0.0-1.0-116.0","false","a,l","l","200","true","200","1","0","0.5","2","-1","1","600","400","white","gray","3","2","2","16.625","[16.25,17.25,16.979999999999563,16.665000000000873,16.654999999998836,16.604999999999563,16.1150000000016,17.36999999999898,15.700000000000728,17.31499999999869,15.915000000000873,16.68000000000029]","12"
"-1","-1","RDK","118","28148","0.0-1.0-117.0","false","a,l","a","200","true","200","1","180","0.5","2","-1","1","600","400","white","gray","3","2","2","16.670833333333576","[17.155000000002474,16.6349999999984,16.709999999999127,17.74500000000262,15.979999999999563,16.424999999999272,16.75500000000102,16.68000000000029,16.544999999998254,16.764999999999418,16.705000000001746,15.950000000000728]","12"
"-1","-1","RDK","119","28366","0.0-1.0-118.0","false","a,l","l","200","true","200","1","0","0.5","2","-1","1","600","400","white","gray","3","2","2","16.68166666666669","[17.154999999998836,16.479999999999563,16.710000000002765,16.594999999997526,16.665000000000873,16.7400000000016,19.474999999998545,14.505000000001019,15.840000000000146,16.674999999999272,16.6349999999984,16.705000000001746]","12"
"-1","-1","RDK","120","28582","0.0-1.0-119.0","false","a,l","l","200","true","200","1","0","0.5","2","-1","1","600","400","white","gray","3","2","2","18.253181818181805","[17.135000000002037,16.2599999999984,17.080000000001746,16.654999999998836,16.650000000001455,16.649999999997817,33.830000000001746,15.834999999999127,16.834999999999127,17.06000000000131,16.794999999998254]","11"
"-1","-1","RDK","121","28801","0.0-1.0-120.0","false","a,l","a","200","true","200","1","180","0.5","2","-1","1","600","400","white","gray","3","2","2","16.635416666666668","[22.845000000001164,10.87999999999738,16.6050000000032,16.114999999997963,17.18999999999869,16.93500000000131,16.43000000000029,16.645000000000437,16.645000000000437,16.68999999999869,16.674999999999272,15.970000000001164]","12"
"-1","-1","RDK","122","29016","0.0-1.0-121.0","false","a,l","a","200","true","200","1","180","0.5","2","-1","1","600","400","white","gray","3","2","2","16.714583333333092","[17.11999999999898,16.779999999998836,16.514999999999418,16.659999999999854,15.895000000000437,17.460000000002765,31.239999999997963,2.0349999999998545,17.229999999999563,16.405000000002474,16.465000000000146,16.7699999999968]","12"
"-1","-1","RDK","123","29231","0.0-1.0-122.0","false","a,l","a","200","true","200","1","180","0.5","2","-1","1","600","400","white","gray","3","2","2","16.702083333333274","[16.110000000000582,17.125,17.159999999999854,16.625,16.639999999999418,16.669999999998254,16.665000000000873,25.965000000000146,6.979999999999563,16.725000000002183,17.149999999997817,16.610000000000582]","12"
"-1","-1","RDK","124","29451","0.0-1.0-123.0","false","a,l","a","200","true","200","1","180","0.5","2","-1","1","600","400","white","gray","3","2","2","18.1554545454548","[17.1150000000016,16.705000000001746,16.649999999997817,35.60499999999956,14.455000000001746,16.639999999999418,16.6150000000016,16.68499999999767,15.760000000002037,17.599999999998545,15.880000000001019]","11"
"-1","-1","RDK","125","29666","0.0-1.0-124.0","false","a,l","l","200","true","200","1","0","0.5","2","-1","1","600","400","white","gray","3","2","2","18.236363636363503","[17.24499999999898,16.575000000000728,16.700000000000728,16.654999999998836,16.655000000002474,16.69499999999971,35.404999999998836,15.770000000000437,15.790000000000873,16.404999999998836,16.70499999999811]","11"
"-1","-1","RDK","126","29883","0.0-1.0-125.0","false","a,l","a","200","true","200","1","180","0.5","2","-1","1","600","400","white","gray","3","2","2","18.240454545454586","[17.13000000000102,16.20499999999811,17.195000000003347,16.639999999999418,16.70499999999811,16.600000000002183,33.86999999999898,15.694999999999709,16.854999999999563,17.18000000000029,16.56999999999971]","11"
"-1","-1","RDK","127","30101","0.0-1.0-126.0","false","a,l","l","200","true","200","1","0","0.5","2","-1","1","600","400","white","gray","3","2","2","16.590833333333347","[16.875,16.530000000002474,16.645000000000437,15.899999999997817,17.43000000000029,16.80500000000029,16.6150000000016,16.664999999997235,16.55000000000291,16.62999999999738,16.69000000000233,15.75499999999738]","12"
"-1","-1","RDK","128","30317","0.0-1.0-127.0","false","a,l","a","200","true","200","1","180","0.5","2","-1","1","600","400","white","gray","3","2","2","16.73083333333337","[17.30500000000029,16.775000000001455,16.450000000000728,16.735000000000582,16.57999999999811,16.729999999999563,31.330000000001746,1.7449999999989814,17.645000000000437,16.209999999999127,16.424999999999272,16.840000000000146]","12"
"-1","-1","RDK","129","30531","0.0-1.0-128.0","false","a,l","a","200","true","200","1","180","0.5","2","-1","1","600","400","white","gray","3","2","2","16.694583333333565","[17.1050000000032,15.859999999996944,17.43000000000029,16.520000000000437,16.61999999999898,16.695000000003347,16.674999999999272,16.654999999998836,16.705000000001746,16.174999999999272,17.235000000000582,16.659999999999854]","12"
"-1","-1","RDK","130","30749","0.0-1.0-129.0","false","a,l","l","200","true","200","1","0","0.5","2","-1","1","600","400","white","gray","3","2","2","18.160000000000185","[16.93500000000131,16.68000000000029,16.705000000001746,15.664999999997235,33.44499999999971,17.79500000000189,16.485000000000582,16.909999999999854,16.549999999999272,16.665000000000873,15.924999999999272]","11"
"-1","-1","RDK","131","30966","0.0-1.0-130.0","false","a,l","l","200","true","200","1","0","0.5","2","-1","1","600","400","white","gray","3","2","2","18.21590909090909","[17.229999999999563,16.590000000000146,16.57999999999811,16.61999999999898,16.655000000002474,16.669999999998254,36.159999999999854,14.010000000002037,15.694999999999709,17.489999999997963,16.67500000000291]","11"
"-1","-1","RDK","132","31183","0.0-1.0-131.0","false","a,l","a","200","true","200","1","180","0.5","2","-1","1","600","400","white","gray","3","2","2","18.24545454545461","[17.125,16.034999999999854,17.345000000001164,16.63000000000102,15.934999999997672,17.38000000000102,33.63500000000204,16.909999999999854,15.840000000000146,17.099999999998545,16.764999999999418]","11"
"-1","-1","RDK","133","31398","0.0-1.0-132.0","false","a,l","l","200","true","200","1","0","0.5","2","-1","1","600","400","white","gray","3","2","2","16.639166666666824","[17.290000000000873,16.604999999999563,16.63000000000102,15.654999999998836,17.520000000000437,16.915000000000873,16.57999999999811,16.655000000002474,16.739999999997963,16.81000000000131,16.544999999998254,15.725000000002183]","12"
"-1","-1","RDK","134","31616","0.0-1.0-133.0","false","a,l","l","200","true","200","1","0","0.5","2","-1","1","600","400","white","gray","3","2","2","16.71875","[17.510000000002037,16.549999999999272,16.584999999999127,16.645000000000437,16.584999999999127,16.7400000000016,31.389999999999418,1.7700000000004366,16.159999999999854,17.42000000000189,16.599999999998545,16.669999999998254]","12"
"-1","-1","RDK","135","31832","0.0-1.0-134.0","false","a,l","l","200","true","200","1","0","0.5","2","-1","1","600","400","white","gray","3","2","2","16.71291666666669","[17.125,16.030000000002474,20.75,20.610000000000582,9.309999999997672,16.625,16.705000000001746,16.610000000000582,16.69999999999709,16.085000000002765,17.334999999999127,16.669999999998254]","12"
"-1","-1","RDK","136","32048","0.0-1.0-135.0","false","a,l","l","200","true","200","1","0","0.5","2","-1","1","600","400","white","gray","3","2","2","18.130454545454665","[17.05500000000029,16.784999999999854,16.56500000000233,16.669999999998254,16.174999999999272,35.98500000000058,14.4900000000016,16.729999999999563,16.654999999998836,16.145000000000437,16.18000000000029]","11"
"-1","-1","RDK","137","32265","0.0-1.0-136.0","false","a,l","l","200","true","200","1","0","0.5","2","-1","1","600","400","white","gray","3","2","2","18.415500000000247","[20.37000000000262,13.724999999998545,16.61999999999898,16.705000000001746,16.604999999999563,16.715000000000146,34.04999999999927,16.135000000002037,16.724999999998545,16.50500000000102]","10"
"-1","-1","RDK","138","32470","0.0-1.0-137.0","false","a,l","l","200","true","200","1","0","0.5","2","-1","1","600","400","white","gray","3","2","2","18.04636363636349","[14.934999999997672,16.50500000000102,15.794999999998254,17.42000000000189,16.834999999999127,16.56499999999869,33.900000000001455,16.275000000001455,16.61999999999898,16.095000000001164,17.56499999999869]","11"
"-1","-1","RDK","139","32685","0.0-1.0-138.0","false","a,l","a","200","true","200","1","180","0.5","2","-1","1","600","400","white","gray","3","2","2","18.290000000000212","[17.909999999999854,16.55500000000029,16.57499999999709,16.595000000001164,16.709999999999127,16.125,34.31000000000131,16.44499999999971,16.904999999998836,16.585000000002765,16.475000000002183]","11"
"-1","-1","RDK","140","32899","0.0-1.0-139.0","false","a,l","a","200","true","200","1","180","0.5","2","-1","1","600","400","white","gray","3","2","2","16.784583333333405","[17.86500000000524,16.139999999999418,17.44499999999971,16.64999999999418,16.650000000001455,16.67500000000291,16.665000000000873,15.665000000000873,17.419999999998254,17.014999999999418,16.589999999996508,16.635000000002037]","12"
"-1","-1","RDK","141","33117","0.0-1.0-140.0","false","a,l","a","200","true","200","1","180","0.5","2","-1","1","600","400","white","gray","3","2","2","18.276363636363715","[17.080000000001746,16.720000000001164,15.839999999996508,17.42500000000291,32.61000000000058,17.589999999996508,16.599999999998545,16.85000000000582,16.68499999999767,15.900000000001455,17.739999999997963]","11"
"-1","-1","RDK","142","33335","0.0-1.0-141.0","false","a,l","l","200","true","200","1","0","0.5","2","-1","1","600","400","white","gray","3","2","2","16.688749999999953","[17.18499999999767,16.515000000006694,16.70499999999447,16.650000000001455,16.68000000000029,16.43499999999767,16.97500000000582,16.364999999997963,16.784999999996217,16.705000000001746,16.635000000002037,16.62999999999738]","12"
"-1","-1","RDK","143","33551","0.0-1.0-142.0","false","a,l","a","200","true","200","1","180","0.5","2","-1","1","600","400","white","gray","3","2","2","16.71583333333304","[16.614999999997963,17.239999999997963,16.56999999999971,16.7300000000032,16.604999999995925,16.69000000000233,30.785000000003492,1.9849999999933061,17.075000000004366,17.014999999999418,16.62999999999738,16.650000000001455]","12"
"-1","-1","RDK","144","33767","0.0-1.0-143.0","false","a,l","l","200","true","200","1","0","0.5","2","-1","1","600","400","white","gray","3","2","2","18.24136363636353","[17.18000000000029,16.724999999998545,15.565000000002328,17.359999999993306,16.92000000000553,16.669999999998254,33.63999999999942,16.464999999996508,16.645000000004075,15.979999999995925,17.505000000004657]","11"
"-1","-1","RDK","145","33985","0.0-1.0-144.0","false","a,l","a","200","true","200","1","180","0.5","2","-1","1","600","400","white","gray","3","2","2","18.228181818182005","[17.19499999999971,16.535000000003492,16.719999999993888,16.55500000000029,16.67000000000553,16.02499999999418,34.43000000000029,16.56999999999971,16.4800000000032,16.610000000000582,16.720000000001164]","11"
"-1","-1","RDK","146","34200","0.0-1.0-145.0","false","a,l","a","200","true","200","1","180","0.5","2","-1","1","600","400","white","gray","3","2","2","16.701250000000073","[16.760000000002037,16.94999999999709,16.715000000003783,16.63499999999476,16.650000000001455,16.68000000000029,16.68499999999767,15.72500000000582,17.18499999999767,17.165000000000873,16.584999999999127,16.68000000000029]","12"
"-1","-1","RDK","147","34418","0.0-1.0-146.0","false","a,l","a","200","true","200","1","180","0.5","2","-1","1","600","400","white","gray","3","2","2","18.238636363636363","[17.119999999995343,16.780000000006112,15.659999999996217,17.364999999997963,32.73500000000058,17.510000000002037,16.919999999998254,16.459999999999127,16.775000000001455,16.014999999999418,17.285000000003492]","11"
"-1","-1","RDK","148","34635","0.0-1.0-147.0","false","a,l","l","200","true","200","1","0","0.5","2","-1","1","600","400","white","gray","3","2","2","16.692083333333358","[17.275000000001455,16.44499999999971,16.81999999999971,16.544999999998254,16.875,15.830000000001746,17.27499999999418,16.685000000004948,16.614999999997963,16.635000000002037,16.689999999995052,16.61500000000524]","12"
"-1","-1","RDK","149","34850","0.0-1.0-148.0","false","a,l","a","200","true","200","1","180","0.5","2","-1","1","600","400","white","gray","3","2","2","16.644583333333383","[16.56999999999971,17.25,16.654999999998836,16.700000000004366,16.589999999996508,16.67500000000291,30.985000000000582,1.9499999999970896,17.31500000000233,16.689999999995052,16.700000000004366,15.654999999998836]","12"
"-1","-1","RDK","150","35067","0.0-1.0-149.0","false","a,l","a","200","true","200","1","180","0.5","2","-1","1","600","400","white","gray","3","2","2","16.76125000000017","[17.80999999999767,16.560000000004948,15.759999999994761,17.470000000001164,15.709999999999127,17.86500000000524,17.984999999993306,15.650000000001455,16.385000000002037,16.625,16.040000000000873,17.275000000001455]","12"
"-1","-1","RDK","151","35285","0.0-1.0-150.0","false","a,l","a","200","true","200","1","180","0.5","2","-1","1","600","400","white","gray","3","2","2","16.689583333333456","[22.93499999999767,10.665000000000873,16.665000000000873,16.75499999999738,16.654999999998836,16.18000000000029,17.290000000000873,16.709999999999127,16.55500000000029,16.505000000004657,16.69499999999971,16.665000000000873]","12"
"-1","-1","RDK","152","35500","0.0-1.0-151.0","false","a,l","a","200","true","200","1","180","0.5","2","-1","1","600","400","white","gray","3","2","2","16.703749999999975","[16.489999999997963,17.459999999999127,18.255000000004657,15.790000000000873,15.539999999993597,16.905000000006112,16.669999999998254,16.674999999995634,16.155000000006112,16.614999999997963,17.30500000000029,16.584999999999127]","12"
"-1","-1","RDK","153","35718","0.0-1.0-152.0","false","a,l","a","200","true","200","1","180","0.5","2","-1","1","600","400","white","gray","3","2","2","18.249090909091386","[17.19000000000233,16.62999999999738,15.700000000004366,17.364999999997963,17.010000000002037,35.20499999999447,15.560000000004948,15.909999999996217,16.700000000004366,15.714999999996508,17.755000000004657]","11"
"-1","-1","RDK","154","35935","0.0-1.0-153.0","false","a,l","a","200","true","200","1","180","0.5","2","-1","1","600","400","white","gray","3","2","2","18.21590909090909","[17.264999999999418,16.610000000000582,16.540000000000873,16.584999999999127,16.69499999999971,15.82999999999447,34.9800000000032,16.089999999996508,16.470000000001164,16.04500000000553,17.264999999999418]","11"
"-1","-1","RDK","155","36149","0.0-1.0-154.0","false","a,l","a","200","true","200","1","180","0.5","2","-1","1","600","400","white","gray","3","2","2","18.401000000000202","[16.43499999999767,17.43000000000029,16.61500000000524,16.654999999998836,16.6449999999968,16.660000000003492,33.81999999999971,16.330000000001746,16.764999999999418,16.654999999998836]","10"
"-1","-1","RDK","156","36353","0.0-1.0-155.0","false","a,l","a","200","true","200","1","180","0.5","2","-1","1","600","400","white","gray","3","2","2","17.904090909090883","[14.419999999998254,16.614999999997963,16.779999999998836,15.544999999998254,17.260000000002037,17.125,33.56500000000233,16.584999999999127,16.56999999999971,16.654999999998836,15.825000000004366]","11"
"-1","-1","RDK","157","36568","0.0-1.0-156.0","false","a,l","a","200","true","200","1","180","0.5","2","-1","1","600","400","white","gray","3","2","2","16.72125000000051","[16.69000000000233,17.489999999997963,16.505000000004657,16.639999999999418,16.614999999997963,16.705000000001746,15.794999999998254,17.43499999999767,16.835000000006403,16.75999999999476,16.505000000004657,16.68000000000029]","12"
"-1","-1","RDK","158","36785","0.0-1.0-157.0","false","a,l","l","200","true","200","1","0","0.5","2","-1","1","600","400","white","gray","3","2","2","16.72416666666686","[17.154999999998836,15.915000000000873,17.410000000003492,16.669999999998254,16.589999999996508,16,17.985000000000582,16.220000000001164,16.56500000000233,16.260000000002037,17.55500000000029,16.364999999997963]","12"
"-1","-1","RDK","159","37003","0.0-1.0-158.0","false","a,l","l","200","true","200","1","0","0.5","2","-1","1","600","400","white","gray","3","2","2","16.59666666666635","[16.99500000000262,16.6449999999968,16.614999999997963,16.61500000000524,16.364999999997963,17.110000000000582,16.494999999995343,16.55500000000029,16.760000000002037,16.669999999998254,16.645000000004075,15.689999999995052]","12"
"-1","-1","RDK","160","37219","0.0-1.0-159.0","false","a,l","a","200","true","200","1","180","0.5","2","-1","1","600","400","white","gray","3","2","2","16.747916666666544","[16.6449999999968,17.485000000000582,16.635000000002037,16.650000000001455,16.139999999999418,17.209999999999127,31.80500000000029,1.6899999999950523,17.44499999999971,15.885000000002037,16.575000000004366,16.80999999999767]","12"
"-1","-1","RDK","161","37433","0.0-1.0-160.0","false","a,l","a","200","true","200","1","180","0.5","2","-1","1","600","400","white","gray","3","2","2","16.708333333333332","[17.17000000000553,16.110000000000582,17.219999999993888,16.735000000000582,16.685000000004948,16.80999999999767,16.3949999999968,16.60000000000582,16.674999999995634,16.025000000001455,17.360000000000582,16.714999999996508]","12"
"-1","-1","RDK","162","37649","0.0-1.0-161.0","false","a,l","l","200","true","200","1","0","0.5","2","-1","1","600","400","white","gray","3","2","2","16.67750000000039","[16.92000000000553,17.654999999998836,16.5199999999968,16.74000000000524,16.084999999999127,17.239999999997963,16.794999999998254,16.535000000003492,16.674999999995634,16.42500000000291,16.860000000000582,15.680000000000291]","12"
"-1","-1","RDK","163","37869","0.0-1.0-162.0","false","a,l","l","200","true","200","1","0","0.5","2","-1","1","600","400","white","gray","3","2","2","16.747500000000098","[17.529999999998836,16.595000000001164,17.639999999999418,16.409999999996217,16.040000000000873,16.705000000001746,16,17.30000000000291,16.82999999999447,16.715000000003783,16.784999999996217,16.42000000000553]","12"
"-1","-1","RDK","164","38083","0.0-1.0-163.0","false","a,l","l","200","true","200","1","0","0.5","2","-1","1","600","400","white","gray","3","2","2","16.728181818182005","[17.214999999996508,15.99500000000262,17.154999999998836,16.864999999997963,16.685000000004948,20.040000000000873,13.854999999995925,15.934999999997672,16.74000000000524,16.19999999999709,17.325000000004366]","11"
"-1","-1","RDK","165","38286","0.0-1.0-164.0","false","a,l","l","200","true","200","1","0","0.5","2","-1","1","600","400","white","gray","3","2","2","16.544166666667177","[15.405000000006112,16.56999999999971,16.7699999999968,16.5,16.75499999999738,16.130000000004657,17.099999999998545,16.635000000002037,16.63499999999476,16.67000000000553,16.69999999999709,16.660000000003492]","12"
"-1","-1","RDK","166","38500","0.0-1.0-165.0","false","a,l","a","200","true","200","1","180","0.5","2","-1","1","600","400","white","gray","3","2","2","16.744545454545005","[16.669999999998254,17.214999999996508,16.590000000003783,16.669999999998254,16.639999999999418,16.639999999999418,31.29500000000553,1.694999999999709,17.479999999995925,16.410000000003492,16.88499999999476]","11"
"-1","-1","RDK","167","38704","0.0-1.0-166.0","false","a,l","l","200","true","200","1","0","0.5","2","-1","1","600","400","white","gray","3","2","2","16.51250000000012","[21.685000000004948,10.614999999997963,16.760000000002037,15.719999999993888,17.54500000000553,16.794999999998254,16.55500000000029,16.334999999999127,16.87999999999738,16.654999999998836,16.68000000000029,15.92500000000291]","12"
"-1","-1","RDK","168","38916","0.0-1.0-167.0","false","a,l","l","200","true","200","1","0","0.5","2","-1","1","600","400","white","gray","3","2","2","16.710454545454756","[17.084999999999127,16.739999999997963,18.080000000001746,15.82499999999709,16.125,16.60000000000582,16.089999999996508,17.275000000001455,16.650000000001455,16.665000000000873,16.68000000000029]","11"
"-1","-1","RDK","169","39118","0.0-1.0-168.0","false","a,l","a","200","true","200","1","180","0.5","2","-1","1","600","400","white","gray","3","2","2","18.196818181818262","[16.674999999995634,16.635000000002037,16.25,17.19999999999709,16.635000000002037,16.595000000001164,35.79000000000087,14.224999999998545,15.635000000002037,17.389999999999418,17.135000000002037]","11"
"-1","-1","RDK","170","39336","0.0-1.0-169.0","false","a,l","l","200","true","200","1","0","0.5","2","-1","1","600","400","white","gray","3","2","2","18.267272727272278","[17.064999999995052,17.125,16.24500000000262,16.67500000000291,15.789999999993597,17.290000000000873,34.17000000000553,16.20499999999447,16.720000000001164,16.645000000004075,17.00999999999476]","11"
"-1","-1","RDK","171","39552","0.0-1.0-170.0","false","a,l","a","200","true","200","1","180","0.5","2","-1","1","600","400","white","gray","3","2","2","18.310454545454625","[17.845000000001164,16.660000000003492,16.80500000000029,16.589999999996508,16.654999999998836,16.43000000000029,33.81000000000495,17.114999999997963,16.209999999999127,17.040000000000873,16.25499999999738]","11"
"-1","-1","RDK","172","39769","0.0-1.0-171.0","false","a,l","a","200","true","200","1","180","0.5","2","-1","1","600","400","white","gray","3","2","2","18.232272727272754","[17.05999999999767,16.455000000001746,16.285000000003492,17.239999999997963,16.62999999999738,16.7300000000032,33.7699999999968,16.264999999999418,16.645000000004075,16.364999999997963,17.110000000000582]","11"
"-1","-1","RDK","173","39987","0.0-1.0-172.0","false","a,l","a","200","true","200","1","180","0.5","2","-1","1","600","400","white","gray","3","2","2","16.697916666666668","[17.130000000004657,15.94999999999709,17.284999999996217,16.67500000000291,15.55000000000291,17.43000000000029,17.06999999999971,16.659999999996217,16.639999999999418,16.62000000000262,16.709999999999127,16.654999999998836]","12"
"-1","-1","RDK","174","40203","0.0-1.0-173.0","false","a,l","l","200","true","200","1","0","0.5","2","-1","1","600","400","white","gray","3","2","2","18.334999999999788","[17.904999999998836,16.909999999996217,15.654999999998836,16.505000000004657,33.404999999998836,17.74500000000262,15.939999999995052,17.334999999999127,15.950000000004366,17.489999999997963,16.845000000001164]","11"
"-1","-1","RDK","175","40418","0.0-1.0-174.0","false","a,l","l","200","true","200","1","0","0.5","2","-1","1","600","400","white","gray","3","2","2","16.70874999999978","[17.239999999997963,16.654999999998836,16.005000000004657,17.494999999995343,16.55000000000291,16.650000000001455,18.27499999999418,18.540000000000873,13.075000000004366,16.68499999999767,16.110000000000582,17.224999999998545]","12"
"-1","-1","RDK","176","40638","0.0-1.0-175.0","false","a,l","a","200","true","200","1","180","0.5","2","-1","1","600","400","white","gray","3","2","2","18.236818181818474","[16.974999999998545,16.375,16.99000000000524,16.654999999998836,15.569999999999709,17.369999999995343,34.54500000000553,16,16.584999999999127,16.714999999996508,16.825000000004366]","11"
"-1","-1","RDK","177","40853","0.0-1.0-176.0","false","a,l","l","200","true","200","1","0","0.5","2","-1","1","600","400","white","gray","3","2","2","18.30500000000029","[17.875,16.81999999999971,16.595000000001164,16.55999999999767,16.810000000004948,16.529999999998836,33.2699999999968,17.260000000002037,16.389999999999418,16.650000000001455,16.595000000001164]","11"
"-1","-1","RDK","178","41072","0.0-1.0-177.0","false","a,l","a","200","true","200","1","180","0.5","2","-1","1","600","400","white","gray","3","2","2","18.235909090909196","[17.145000000004075,16.790000000000873,15.724999999998545,17.32499999999709,16.705000000001746,16.584999999999127,33.80500000000029,16.30999999999767,16.665000000000873,16.139999999999418,17.400000000001455]","11"
"-1","-1","RDK","179","41285","0.0-1.0-178.0","false","a,l","l","200","true","200","1","0","0.5","2","-1","1","600","400","white","gray","3","2","2","16.69291666666686","[17.19499999999971,16.470000000001164,16.69000000000233,16.639999999999418,15.680000000000291,17.18499999999767,17.139999999999418,16.709999999999127,16.590000000003783,16.68499999999767,16.67500000000291,16.654999999998836]","12"
"-1","-1","RDK","180","41503","0.0-1.0-179.0","false","a,l","l","200","true","200","1","0","0.5","2","-1","1","600","400","white","gray","3","2","2","16.717083333332994","[17.734999999993306,17.1050000000032,16.580000000001746,16.659999999996217,16.639999999999418,16.17000000000553,17.959999999999127,15.134999999994761,17.485000000000582,16.895000000004075,16.544999999998254,15.694999999999709]","12"
"-1","-1","RDK","181","41719","0.0-1.0-180.0","false","a,l","l","200","true","200","1","0","0.5","2","-1","1","600","400","white","gray","3","2","2","16.6579166666664","[23.294999999998254,10.490000000005239,16.114999999997963,17.43000000000029,16.69999999999709,16.700000000004366,17.909999999996217,18.93000000000029,12.87999999999738,16.650000000001455,15.735000000000582,17.05999999999767]","12"
"-1","-1","RDK","182","41938","0.0-1.0-181.0","false","a,l","l","200","true","200","1","0","0.5","2","-1","1","600","400","white","gray","3","2","2","18.229545454544926","[17.174999999995634,16.375,16.910000000003492,16.639999999999418,16.69999999999709,16.145000000004075,34.81999999999971,15.735000000000582,16.81999999999971,16.619999999995343,16.584999999999127]","11"
"-1","-1","RDK","183","42153","0.0-1.0-182.0","false","a,l","a","200","true","200","1","180","0.5","2","-1","1","600","400","white","gray","3","2","2","18.324999999999736","[17.854999999995925,16.955000000001746,16.739999999997963,16.535000000003492,16.544999999998254,16.68499999999767,33.38500000000204,17.209999999999127,16.215000000003783,16.875,16.57499999999709]","11"
"-1","-1","RDK","184","42368","0.0-1.0-183.0","false","a,l","l","200","true","200","1","0","0.5","2","-1","1","600","400","white","gray","3","2","2","18.321500000000377","[17.1449999999968,16.720000000001164,15.645000000004075,17.375,16.854999999995925,16.645000000004075,33.69499999999971,16.3949999999968,16.610000000000582,16.130000000004657]","10"
"-1","-1","RDK","185","42574","0.0-1.0-184.0","false","a,l","l","200","true","200","1","0","0.5","2","-1","1","600","400","white","gray","3","2","2","16.52416666666674","[15.165000000000873,16.645000000004075,15.860000000000582,17.30500000000029,16.63499999999476,16.660000000003492,16.150000000001455,17.19499999999971,16.739999999997963,16.56500000000233,16.709999999999127,16.659999999996217]","12"
"-1","-1","RDK","186","42784","0.0-1.0-185.0","false","a,l","a","200","true","200","1","180","0.5","2","-1","1","600","400","white","gray","3","2","2","18.413000000000466","[16.165000000000873,17.270000000004075,17.12999999999738,16.599999999998545,16.60000000000582,32.609999999993306,17.56500000000233,15.819999999999709,17.220000000001164,17.150000000001455]","10"
"-1","-1","RDK","187","42988","0.0-1.0-186.0","false","a,l","a","200","true","200","1","180","0.5","2","-1","1","600","400","white","gray","3","2","2","16.56500000000051","[15.630000000004657,16.610000000000582,16.6449999999968,16.80500000000029,15.915000000000873,17.165000000000873,16.779999999998836,16.709999999999127,16.845000000001164,16.5,16.56500000000233,16.610000000000582]","12"
"-1","-1","RDK","188","43204","0.0-1.0-187.0","false","a,l","a","200","true","200","1","180","0.5","2","-1","1","600","400","white","gray","3","2","2","16.773333333333238","[17.830000000001746,16.385000000002037,16.979999999995925,16.87000000000262,16.404999999998836,16.735000000000582,16.764999999999418,15.919999999998254,17.485000000000582,16.560000000004948,16.674999999995634,16.669999999998254]","12"
"-1","-1","RDK","189","43419","0.0-1.0-188.0","false","a,l","l","200","true","200","1","0","0.5","2","-1","1","600","400","white","gray","3","2","2","16.76833333333343","[17.05500000000029,17.42500000000291,16.12999999999738,17.18000000000029,16.614999999997963,16.68000000000029,16.785000000003492,16.549999999995634,16.720000000001164,15.665000000000873,17.31999999999971,17.095000000001164]","12"
"-1","-1","RDK","190","43638","0.0-1.0-189.0","false","a,l","l","200","true","200","1","0","0.5","2","-1","1","600","400","white","gray","3","2","2","18.229545454545587","[17.104999999995925,33.779999999998836,16.265000000006694,15.82999999999447,17.639999999999418,16.93000000000029,16.43000000000029,16.86500000000524,25.80500000000029,7.744999999995343,16.130000000004657]","11"
"-1","-1","RDK","191","43851","0.0-1.0-190.0","false","a,l","a","200","true","200","1","180","0.5","2","-1","1","600","400","white","gray","3","2","2","18.488000000000465","[17.849999999998545,16.580000000001746,16.044999999998254,17.43000000000029,16.630000000004657,35.40999999999622,14.485000000000582,16.950000000004366,16.80999999999767,16.69000000000233]","10"
"-1","-1","RDK","192","44054","0.0-1.0-191.0","false","a,l","l","200","true","200","1","0","0.5","2","-1","1","600","400","white","gray","3","2","2","16.54416666666657","[15.735000000000582,16.57999999999447,16.79500000000553,16.049999999995634,17.270000000004075,16.82999999999447,16.30500000000029,16.660000000003492,16.68000000000029,16.669999999998254,15.584999999999127,17.37000000000262]","12"
"-1","-1","RDK","193","44273","0.0-1.0-192.0","false","a,l","l","200","true","200","1","0","0.5","2","-1","1","600","400","white","gray","3","2","2","16.713750000000193","[17.25,16.630000000004657,16.674999999995634,16.67500000000291,16.62999999999738,15.864999999997963,32.17000000000553,2.0649999999950523,16.575000000004366,16.68499999999767,16.68499999999767,16.660000000003492]","12"
"-1","-1","RDK","194","44488","0.0-1.0-193.0","false","a,l","l","200","true","200","1","0","0.5","2","-1","1","600","400","white","gray","3","2","2","18.22681818181776","[16.235000000000582,17.45499999999447,16.86500000000524,16.564999999995052,16.67500000000291,16.80999999999767,33.55500000000029,16.290000000000873,16.94499999999971,16.50499999999738,16.595000000001164]","11"
"-1","-1","RDK","195","44703","0.0-1.0-194.0","false","a,l","a","200","true","200","1","180","0.5","2","-1","1","600","400","white","gray","3","2","2","18.197727272727537","[17.095000000001164,33.82499999999709,15.630000000004657,17.375,16.589999999996508,16.75,16.489999999997963,16.72500000000582,25.844999999993888,8.165000000000873,15.685000000004948]","11"
"-1","-1","RDK","196","44921","0.0-1.0-195.0","false","a,l","l","200","true","200","1","0","0.5","2","-1","1","600","400","white","gray","3","2","2","16.70291666666647","[23.2699999999968,10.525000000001455,16.55500000000029,16.81500000000233,16.709999999999127,19.735000000000582,13.75,16.584999999999127,16.80999999999767,16.400000000001455,16.56500000000233,16.714999999996508]","12"
"-1","-1","RDK","197","45137","0.0-1.0-196.0","false","a,l","a","200","true","200","1","180","0.5","2","-1","1","600","400","white","gray","3","2","2","18.239545454545638","[16.095000000001164,17.614999999997963,16.840000000003783,16.57499999999709,16.62999999999738,16.69000000000233,33.98999999999796,15.815000000002328,17.010000000002037,16.794999999998254,16.580000000001746]","11"
"-1","-1","RDK","198","45353","0.0-1.0-197.0","false","a,l","l","200","true","200","1","0","0.5","2","-1","1","600","400","white","gray","3","2","2","16.688749999999953","[17.25,16.68499999999767,16.529999999998836,16.294999999998254,17.43000000000029,16.510000000002037,17.610000000000582,16.235000000000582,16.040000000000873,17.52499999999418,15.860000000000582,16.29500000000553]","12"
"-1","-1","RDK","199","45572","0.0-1.0-198.0","false","a,l","l","200","true","200","1","0","0.5","2","-1","1","600","400","white","gray","3","2","2","18.2304545454542","[16.969999999993888,16.390000000006694,16.984999999993306,16.55500000000029,16.60000000000582,15.764999999999418,34.61999999999534,16.580000000001746,16.529999999998836,16.735000000000582,16.80500000000029]","11"
"-1","-1","RDK","200","45793","0.0-1.0-199.0","false","a,l","l","200","true","200","1","0","0.5","2","-1","1","600","400","white","gray","3","2","2","18.23090909090917","[16.224999999998545,17.279999999998836,16.94000000000233,16.720000000001164,16.544999999998254,16.540000000000873,33.919999999998254,15.584999999999127,17.22500000000582,17.0199999999968,16.540000000000873]","11"
