"rt","key_press","trial_type","trial_index","time_elapsed","internal_node_id","correct","choices","correct_choice","trial_duration","response_ends_trial","number_of_dots","number_of_sets","coherent_direction","coherence","dot_radius","dot_life","move_distance","aperture_width","aperture_height","dot_color","background_color","RDK_type","aperture_type","reinsert_type","frame_rate","frame_rate_array","number_of_frames"
"2319","13","text","0","2320","0.0-0.0","","","","","","","","","","","","","","","","","","","","","",""
"-1","-1","RDK","1","3548","0.0-1.0-0.0","false","a,l","a","200","true","200","1","180","0.5","2","-1","1","600","400","white","gray","3","2","2","16.674999999999994","[17.999999999999545,15.500000000000455,16.799999999999727,16.500000000000455,15.799999999999727,17.5,16.699999999999818,16.700000000000273,16.299999999999727,17,16.700000000000273,16.59999999999991]","12"
"-1","-1","RDK","2","3765","0.0-1.0-1.0","false","a,l","l","200","true","200","1","0","0.5","2","-1","1","600","400","white","gray","3","2","2","18.199999999999985","[17.59999999999991,15.299999999999727,36.30000000000064,14.199999999999363,16.800000000000637,16.699999999999818,16.699999999999818,16.699999999999818,16.700000000000273,16.59999999999991,16.59999999999991]","11"
"-1","-1","RDK","3","3983","0.0-1.0-2.0","false","a,l","a","200","true","200","1","180","0.5","2","-1","1","600","400","white","gray","3","2","2","16.62499999999996","[18.600000000000364,14.900000000000091,16.699999999999363,16.600000000000364,16.800000000000182,16.59999999999991,16.699999999999818,16.700000000000273,16.300000000000182,17.099999999999454,16.700000000000273,15.799999999999272]","12"
"-1","-1","RDK","4","4198","0.0-1.0-3.0","false","a,l","a","200","true","200","1","180","0.5","2","-1","1","600","400","white","gray","3","2","2","18.08181818181819","[20.59999999999991,27,18,16.699999999999818,16.600000000000364,16.800000000000182,16.099999999999454,17.200000000000728,16.600000000000364,16.99999999999909,16.300000000000182]","11"
"-1","-1","RDK","5","4416","0.0-1.0-4.0","false","a,l","l","200","true","200","1","0","0.5","2","-1","1","600","400","white","gray","3","2","2","16.700000000000045","[17.400000000000546,16.099999999999454,16.900000000001455,16.599999999999454,16.600000000000364,25.199999999999818,7.599999999999454,17.300000000000182,16.699999999999818,16,17.300000000000182,16.699999999999818]","12"
"-1","-1","RDK","6","4632","0.0-1.0-5.0","false","a,l","a","200","true","200","1","180","0.5","2","-1","1","600","400","white","gray","3","2","2","16.700000000000045","[25.100000000000364,9,16.199999999999818,16.5,16.80000000000109,16.69999999999891,16.50000000000091,16.899999999999636,16.600000000000364,16.799999999999272,16.599999999999454,16.700000000000728]","12"
"-1","-1","RDK","7","4848","0.0-1.0-6.0","false","a,l","l","200","true","200","1","0","0.5","2","-1","1","600","400","white","gray","3","2","2","16.69166666666668","[17.300000000000182,16.100000000000364,24.299999999999272,9.100000000000364,16.600000000000364,16.899999999999636,16.600000000000364,16.699999999999818,16.5,16.899999999999636,16.300000000000182,17]","12"
"-1","-1","RDK","8","5065","0.0-1.0-7.0","false","a,l","l","200","true","200","1","0","0.5","2","-1","1","600","400","white","gray","3","2","2","16.691666666666606","[17.5,15.600000000000364,17.099999999998545,15.800000000001091,17.199999999999818,18.199999999999818,15.49999999999909,16.700000000000728,16.699999999999818,16.700000000000728,16.599999999999454,16.699999999999818]","12"
"-1","-1","RDK","9","5281","0.0-1.0-8.0","false","a,l","a","200","true","200","1","180","0.5","2","-1","1","600","400","white","gray","3","2","2","16.69166666666676","[19.400000000000546,26.800000000000182,3.5,17.100000000000364,16.800000000000182,16.69999999999891,16.200000000000728,17.199999999999818,16.600000000000364,16.699999999999818,16.699999999999818,16.600000000000364]","12"
"-1","-1","RDK","10","5499","0.0-1.0-9.0","false","a,l","l","200","true","200","1","0","0.5","2","-1","1","600","400","white","gray","3","2","2","18.200000000000067","[18,15.600000000000364,16.5,44.20000000000073,5.9999999999990905,16.600000000000364,16.600000000000364,16.69999999999891,16.800000000000182,16.600000000000364,16.600000000000364]","11"
"-1","-1","RDK","11","5715","0.0-1.0-10.0","false","a,l","a","200","true","200","1","180","0.5","2","-1","1","600","400","white","gray","3","2","2","20.010000000000037","[17.300000000000182,16,16.900000000000546,16.699999999999818,16.599999999999454,64.60000000000036,3.699999999999818,14.300000000000182,17.400000000000546,16.599999999999454]","10"
"-1","-1","RDK","12","5932","0.0-1.0-11.0","false","a,l","a","200","true","200","1","180","0.5","2","-1","1","600","400","white","gray","3","2","2","20.040000000000056","[17.400000000000546,15.300000000000182,51.899999999999636,15.600000000000364,16.699999999999818,16.800000000000182,16.699999999999818,16.600000000000364,16.299999999999272,17.100000000000364]","10"
"-1","-1","RDK","13","6149","0.0-1.0-12.0","false","a,l","l","200","true","200","1","0","0.5","2","-1","1","600","400","white","gray","3","2","2","16.69166666666676","[18.700000000000728,15,16.5,16.699999999999818,27.300000000000182,6.100000000000364,16.399999999999636,16.800000000000182,15.899999999999636,17.5,16.699999999999818,16.700000000000728]","12"
"-1","-1","RDK","14","6366","0.0-1.0-13.0","false","a,l","a","200","true","200","1","180","0.5","2","-1","1","600","400","white","gray","3","2","2","18.200000000000067","[23.80000000000109,27.399999999999636,15.600000000000364,16.69999999999891,16.700000000000728,16.699999999999818,16.600000000000364,16.299999999999272,17.100000000000364,16.600000000000364,16.699999999999818]","11"
"-1","-1","RDK","15","6584","0.0-1.0-14.0","false","a,l","a","200","true","200","1","180","0.5","2","-1","1","600","400","white","gray","3","2","2","16.691666666666606","[17.299999999999272,16.300000000000182,16.5,24.399999999999636,8.700000000000728,16.900000000000546,16.800000000000182,16.69999999999891,16.699999999999818,16.600000000000364,16.700000000000728,16.69999999999891]","12"
"-1","-1","RDK","16","6800","0.0-1.0-15.0","false","a,l","l","200","true","200","1","0","0.5","2","-1","1","600","400","white","gray","3","2","2","18.209090909090925","[17.399999999999636,16,16.800000000000182,16.699999999999818,16.700000000000728,35.5,14.399999999999636,15.900000000000546,17.599999999999454,16.599999999999454,16.700000000000728]","11"
"-1","-1","RDK","17","7016","0.0-1.0-16.0","false","a,l","a","200","true","200","1","180","0.5","2","-1","1","600","400","white","gray","3","2","2","18.21818181818187","[24.399999999999636,27.100000000000364,14.899999999999636,17.200000000000728,16.699999999999818,16.699999999999818,16.699999999999818,16.700000000000728,16.49999999999909,16.800000000000182,16.700000000000728]","11"
"-1","-1","RDK","18","7232","0.0-1.0-17.0","false","a,l","a","200","true","200","1","180","0.5","2","-1","1","600","400","white","gray","3","2","2","16.68333333333332","[17.299999999999272,16.100000000001273,16.799999999999272,24.199999999999818,9.100000000000364,16.600000000000364,16.800000000000182,16.699999999999818,16.69999999999891,16.700000000000728,16.5,16.699999999999818]","12"
"-1","-1","RDK","19","7449","0.0-1.0-18.0","false","a,l","l","200","true","200","1","0","0.5","2","-1","1","600","400","white","gray","3","2","2","16.69999999999997","[17.399999999998727,16.100000000001273,16.799999999999272,16.599999999999454,16.800000000000182,16.50000000000091,23.299999999999272,9.600000000000364,17.100000000000364,16.799999999999272,16.700000000000728,16.699999999999818]","12"
"-1","-1","RDK","20","7664","0.0-1.0-19.0","false","a,l","a","200","true","200","1","180","0.5","2","-1","1","600","400","white","gray","3","2","2","18.290909090909157","[23.00000000000091,36.899999999999636,7.800000000000182,16.800000000000182,16.600000000000364,16.69999999999891,16.699999999999818,16.700000000000728,16.5,16.699999999999818,16.800000000000182]","11"
"-1","-1","RDK","21","7883","0.0-1.0-20.0","false","a,l","l","200","true","200","1","0","0.5","2","-1","1","600","400","white","gray","3","2","2","16.69166666666668","[17.400000000000546,16.19999999999891,16.600000000000364,15.699999999999818,19.600000000001273,14.799999999999272,16.600000000000364,16.699999999999818,16.699999999999818,16.699999999999818,16.600000000000364,16.699999999999818]","12"
"-1","-1","RDK","22","8099","0.0-1.0-21.0","false","a,l","a","200","true","200","1","180","0.5","2","-1","1","600","400","white","gray","3","2","2","18.209090909090925","[17.399999999998727,16.100000000001273,16.699999999999818,16.800000000000182,16.699999999999818,35.80000000000018,13.99999999999909,16.800000000000182,16.699999999999818,16.600000000000364,16.700000000000728]","11"
"-1","-1","RDK","23","8316","0.0-1.0-22.0","false","a,l","l","200","true","200","1","0","0.5","2","-1","1","600","400","white","gray","3","2","2","18.21818181818187","[17.50000000000091,37.899999999999636,11.5,16.700000000000728,16.69999999999891,16.700000000000728,16.700000000000728,16.69999999999891,15.699999999998909,17.600000000000364,16.700000000000728]","11"
"-1","-1","RDK","24","8531","0.0-1.0-23.0","false","a,l","l","200","true","200","1","0","0.5","2","-1","1","600","400","white","gray","3","2","2","16.69999999999997","[17.399999999999636,16,16.799999999999272,16.69999999999891,23.00000000000182,10.399999999997817,16.600000000000364,16.700000000000728,16.799999999999272,16.600000000000364,16.600000000000364,16.80000000000109]","12"
"-1","-1","RDK","25","8748","0.0-1.0-24.0","false","a,l","a","200","true","200","1","180","0.5","2","-1","1","600","400","white","gray","3","2","2","16.69999999999997","[17.899999999999636,15.799999999999272,16.600000000000364,16.700000000000728,16.700000000000728,16.600000000000364,30.5,2.399999999999636,16.299999999999272,17.5,16.299999999999272,17.100000000000364]","12"
"-1","-1","RDK","26","8966","0.0-1.0-25.0","false","a,l","l","200","true","200","1","0","0.5","2","-1","1","600","400","white","gray","3","2","2","25.03749999999991","[19,89.79999999999927,7.900000000001455,16.899999999999636,16.80000000000109,16.69999999999891,16.599999999998545,16.600000000000364]","8"
"-1","-1","RDK","27","9181","0.0-1.0-26.0","false","a,l","a","200","true","200","1","180","0.5","2","-1","1","600","400","white","gray","3","2","2","16.708333333333332","[17.600000000000364,16.19999999999891,16.700000000000728,16.600000000000364,16.700000000000728,16.69999999999891,16.600000000000364,16.5,15.700000000000728,17.799999999999272,16.799999999999272,16.600000000000364]","12"
"-1","-1","RDK","28","9399","0.0-1.0-27.0","false","a,l","a","200","true","200","1","180","0.5","2","-1","1","600","400","white","gray","3","2","2","16.69166666666676","[17.30000000000109,16.099999999998545,16.80000000000109,16.19999999999891,17.200000000000728,16.700000000000728,16.700000000000728,16.599999999998545,16.69999999999891,16.700000000000728,16.600000000000364,16.700000000000728]","12"
"-1","-1","RDK","29","9616","0.0-1.0-28.0","false","a,l","l","200","true","200","1","0","0.5","2","-1","1","600","400","white","gray","3","2","2","18.218181818181787","[18.5,15.100000000000364,16.700000000000728,16.69999999999709,16.600000000000364,35.50000000000182,14.399999999999636,16.80000000000109,16.799999999999272,16.600000000000364,16.69999999999891]","11"
"-1","-1","RDK","30","9833","0.0-1.0-29.0","false","a,l","l","200","true","200","1","0","0.5","2","-1","1","600","400","white","gray","3","2","2","18.209090909090843","[23.5,39.600000000000364,4.199999999998909,16.30000000000109,16.69999999999709,16.700000000000728,16.700000000000728,16.69999999999891,16.600000000002183,16.19999999999891,17.100000000000364]","11"
"-1","-1","RDK","31","10050","0.0-1.0-30.0","false","a,l","l","200","true","200","1","0","0.5","2","-1","1","600","400","white","gray","3","2","2","16.683333333333394","[17.200000000000728,16.299999999999272,16.700000000000728,16.600000000000364,22.899999999999636,9.700000000000728,17.399999999999636,16.700000000000728,16.69999999999891,16.600000000000364,16.799999999999272,16.600000000000364]","12"
"-1","-1","RDK","32","10267","0.0-1.0-31.0","false","a,l","a","200","true","200","1","180","0.5","2","-1","1","600","400","white","gray","3","2","2","18.218181818181787","[17.5,16.100000000000364,16.69999999999891,16.700000000000728,16.69999999999891,35.30000000000109,14.599999999998545,16.700000000000728,16.700000000000728,16.69999999999891,16.700000000000728]","11"
"-1","-1","RDK","33","10481","0.0-1.0-32.0","false","a,l","a","200","true","200","1","180","0.5","2","-1","1","600","400","white","gray","3","2","2","18.45","[18.5,42.600000000000364,6.199999999998909,17.30000000000109,16.600000000000364,16.69999999999891,16.69999999999891,16.600000000000364,16.700000000000728,16.600000000000364]","10"
"-1","-1","RDK","34","10685","0.0-1.0-33.0","false","a,l","a","200","true","200","1","180","0.5","2","-1","1","600","400","white","gray","3","2","2","16.616666666666635","[17,15.499999999998181,16.80000000000109,16.700000000000728,17.299999999999272,28.399999999999636,4.200000000000728,15.699999999998909,17.700000000002547,16.599999999998545,16.69999999999891,16.80000000000109]","12"
"-1","-1","RDK","35","10898","0.0-1.0-34.0","false","a,l","a","200","true","200","1","180","0.5","2","-1","1","600","400","white","gray","3","2","2","18.227272727272727","[23.799999999999272,40.20000000000073,2.5,17.099999999998545,16.900000000001455,16.69999999999891,16.600000000000364,16.700000000000728,16.600000000000364,15.699999999998909,17.700000000000728]","11"
"-1","-1","RDK","36","11115","0.0-1.0-35.0","false","a,l","l","200","true","200","1","0","0.5","2","-1","1","600","400","white","gray","3","2","2","16.69999999999997","[16.69999999999891,16.899999999999636,16.600000000000364,16.700000000000728,23,10.300000000001091,16.799999999999272,16.600000000000364,16.599999999998545,16.80000000000109,16.69999999999891,16.700000000000728]","12"
"-1","-1","RDK","37","11333","0.0-1.0-36.0","false","a,l","l","200","true","200","1","0","0.5","2","-1","1","600","400","white","gray","3","2","2","16.691666666666453","[17.19999999999891,16.5,16.600000000000364,16.700000000000728,16.599999999998545,16.69999999999891,24.400000000001455,8.899999999999636,18.100000000000364,15.300000000001091,16.69999999999891,16.599999999998545]","12"
"-1","-1","RDK","38","11548","0.0-1.0-37.0","false","a,l","a","200","true","200","1","180","0.5","2","-1","1","600","400","white","gray","3","2","2","20.477777777777696","[18.899999999999636,15,58.20000000000073,8.799999999999272,16,17.299999999999272,16.700000000000728,16.600000000000364,16.799999999999272]","9"
"-1","-1","RDK","39","11750","0.0-1.0-38.0","false","a,l","a","200","true","200","1","180","0.5","2","-1","1","600","400","white","gray","3","2","2","16.65833333333315","[16.69999999999891,16,17.100000000002183,16.69999999999709,16.600000000000364,16.700000000000728,17.600000000000364,15.700000000000728,16.69999999999891,16.700000000000728,16.700000000000728,16.69999999999709]","12"
"-1","-1","RDK","40","11967","0.0-1.0-39.0","false","a,l","l","200","true","200","1","0","0.5","2","-1","1","600","400","white","gray","3","2","2","18.190909090909123","[22.399999999999636,27,17.400000000001455,16.69999999999891,16.700000000000728,16.599999999998545,16.700000000000728,16.600000000000364,16.799999999999272,16.600000000000364,16.600000000000364]","11"
"-1","-1","RDK","41","12183","0.0-1.0-40.0","false","a,l","a","200","true","200","1","180","0.5","2","-1","1","600","400","white","gray","3","2","2","16.683333333333394","[17.5,16,25.600000000002183,7.299999999999272,17.100000000000364,16.899999999999636,16.5,16.700000000000728,16.599999999998545,16.799999999999272,16.50000000000182,16.69999999999891]","12"
"-1","-1","RDK","42","12401","0.0-1.0-41.0","false","a,l","a","200","true","200","1","180","0.5","2","-1","1","600","400","white","gray","3","2","2","18.218181818181787","[17.5,16.099999999998545,16.700000000000728,16.700000000000728,16.69999999999891,32.600000000000364,16.99999999999818,17.100000000002183,16.600000000000364,16.69999999999891,16.700000000000728]","11"
"-1","-1","RDK","43","12620","0.0-1.0-42.0","false","a,l","a","200","true","200","1","180","0.5","2","-1","1","600","400","white","gray","3","2","2","18.218181818181787","[29,26.700000000000728,11.199999999998909,16.80000000000109,16.69999999999891,16.700000000000728,16.599999999998545,16.700000000000728,16.700000000000728,16.69999999999891,16.600000000000364]","11"
"-1","-1","RDK","44","12835","0.0-1.0-43.0","false","a,l","a","200","true","200","1","180","0.5","2","-1","1","600","400","white","gray","3","2","2","16.68333333333324","[17.19999999999891,16.200000000000728,16.69999999999891,15.800000000001091,31.5,2,17.30000000000109,16.799999999999272,16.5,16.799999999999272,16.700000000000728,16.69999999999891]","12"
"-1","-1","RDK","45","13050","0.0-1.0-44.0","false","a,l","a","200","true","200","1","180","0.5","2","-1","1","600","400","white","gray","3","2","2","16.68333333333324","[17.099999999998545,16.100000000000364,16.900000000001455,16.799999999999272,16.69999999999891,16.600000000000364,26.700000000000728,6.600000000000364,16,16.5,17.700000000000728,16.49999999999818]","12"
"-1","-1","RDK","46","13267","0.0-1.0-45.0","false","a,l","l","200","true","200","1","0","0.5","2","-1","1","600","400","white","gray","3","2","2","18.209090909091007","[21.30000000000109,39.79999999999927,6,16.5,16.5,16.80000000000109,15.699999999998909,17.600000000000364,16,17.299999999999272,16.80000000000109]","11"
"-1","-1","RDK","47","13491","0.0-1.0-46.0","false","a,l","l","200","true","200","1","0","0.5","2","-1","1","600","400","white","gray","3","2","2","16.67500000000003","[18.19999999999891,15.400000000001455,16.69999999999891,16.600000000000364,19.19999999999891,14.200000000000728,16.700000000000728,16.600000000000364,16.700000000000728,16.69999999999891,16.69999999999891,16.400000000001455]","12"
"-1","-1","RDK","48","13701","0.0-1.0-47.0","false","a,l","a","200","true","200","1","180","0.5","2","-1","1","600","400","white","gray","3","2","2","18.218181818181787","[17.099999999998545,16.50000000000182,16.799999999999272,16.600000000000364,16.700000000000728,35.79999999999927,14.099999999998545,16.600000000000364,16.899999999999636,16.600000000000364,16.700000000000728]","11"
"-1","-1","RDK","49","13918","0.0-1.0-48.0","false","a,l","l","200","true","200","1","0","0.5","2","-1","1","600","400","white","gray","3","2","2","18.19090909090929","[17.100000000002183,40.89999999999782,8.800000000001091,16.700000000000728,16.700000000000728,16.69999999999891,16.700000000000728,16.700000000000728,16.599999999998545,16.600000000000364,16.600000000000364]","11"
"-1","-1","RDK","50","14134","0.0-1.0-49.0","false","a,l","a","200","true","200","1","180","0.5","2","-1","1","600","400","white","gray","3","2","2","16.68333333333324","[17.399999999997817,16.30000000000109,16.5,16.69999999999891,25.100000000000364,8.100000000002183,16.799999999999272,16.799999999999272,16.700000000000728,16.600000000000364,16.700000000000728,16.49999999999818]","12"
"-1","-1","RDK","51","14349","0.0-1.0-50.0","false","a,l","a","200","true","200","1","180","0.5","2","-1","1","600","400","white","gray","3","2","2","16.736363636363834","[17.80000000000109,16.100000000000364,16.700000000000728,16.69999999999891,16.700000000000728,16.599999999998545,30.600000000002183,2.399999999999636,16.100000000000364,17.69999999999891,16.700000000000728]","11"
"-1","-1","RDK","52","14553","0.0-1.0-51.0","false","a,l","a","200","true","200","1","180","0.5","2","-1","1","600","400","white","gray","3","2","2","18.17272727272724","[17.69999999999891,15.399999999999636,42.400000000001455,7.699999999998909,15.900000000001455,17.399999999999636,16.600000000000364,16.700000000000728,16.799999999999272,16.599999999998545,16.700000000000728]","11"
"-1","-1","RDK","53","14770","0.0-1.0-52.0","false","a,l","l","200","true","200","1","0","0.5","2","-1","1","600","400","white","gray","3","2","2","20.039999999999964","[18.100000000000364,15.799999999997453,16.400000000001455,16.700000000000728,62.89999999999782,3.7000000000007276,16.600000000000364,16.399999999999636,17.100000000000364,16.700000000000728]","10"
"-1","-1","RDK","54","14982","0.0-1.0-53.0","false","a,l","a","200","true","200","1","180","0.5","2","-1","1","600","400","white","gray","3","2","2","18.340000000000146","[25.400000000001455,28.200000000000728,14.099999999998545,16.700000000000728,16.600000000000364,16.69999999999891,16.700000000000728,16.599999999998545,16.30000000000109,16.100000000000364]","10"
"-1","-1","RDK","55","15184","0.0-1.0-54.0","false","a,l","l","200","true","200","1","0","0.5","2","-1","1","600","400","white","gray","3","2","2","16.691666666666606","[17.19999999999891,16.30000000000109,16.600000000000364,16,24.5,9.599999999998545,16.600000000000364,16.799999999999272,15.600000000002183,17.69999999999891,16.700000000000728,16.69999999999891]","12"
"-1","-1","RDK","56","15399","0.0-1.0-55.0","false","a,l","l","200","true","200","1","0","0.5","2","-1","1","600","400","white","gray","3","2","2","16.6363636363638","[23.5,25.899999999999636,2.500000000001819,15.399999999999636,16.799999999999272,16.600000000000364,16.599999999998545,16.80000000000109,16.900000000001455,19.799999999999272,12.200000000000728]","11"
"-1","-1","RDK","57","15602","0.0-1.0-56.0","false","a,l","a","200","true","200","1","180","0.5","2","-1","1","600","400","white","gray","3","2","2","16.608333333333274","[16,16.600000000000364,16.49999999999818,16.700000000000728,28.80000000000109,9.899999999999636,11.200000000000728,16.799999999999272,16.700000000000728,16.700000000000728,16.599999999998545,16.799999999999272]","12"
"-1","-1","RDK","58","15816","0.0-1.0-57.0","false","a,l","l","200","true","200","1","0","0.5","2","-1","1","600","400","white","gray","3","2","2","16.763636363636497","[18.100000000000364,16.299999999999272,16.600000000000364,16.700000000000728,16.700000000000728,15.699999999998909,29.799999999999272,4.399999999999636,16.30000000000109,17.200000000000728,16.600000000000364]","11"
"-1","-1","RDK","59","16018","0.0-1.0-58.0","false","a,l","a","200","true","200","1","180","0.5","2","-1","1","600","400","white","gray","3","2","2","16.55833333333324","[16.600000000000364,16.50000000000182,16.399999999997817,28.600000000002183,4.199999999998909,17.299999999999272,16.799999999999272,16.69999999999891,16.700000000000728,16.700000000000728,16.5,15.699999999998909]","12"
"-1","-1","RDK","60","16233","0.0-1.0-59.0","false","a,l","l","200","true","200","1","0","0.5","2","-1","1","600","400","white","gray","3","2","2","18.21818181818162","[16.799999999999272,17,16.5,16.80000000000109,16.69999999999891,35.29999999999927,14.599999999998545,16.700000000000728,16.69999999999891,16.700000000000728,16.600000000000364]","11"
"-1","-1","RDK","61","16453","0.0-1.0-60.0","false","a,l","l","200","true","200","1","0","0.5","2","-1","1","600","400","white","gray","3","2","2","18.209090909091007","[23.900000000001455,26.5,16.49999999999818,16.700000000000728,16.700000000000728,16.700000000000728,16.599999999998545,16.700000000000728,16.700000000000728,16.600000000002183,16.69999999999709]","11"
"-1","-1","RDK","62","16667","0.0-1.0-61.0","false","a,l","a","200","true","200","1","180","0.5","2","-1","1","600","400","white","gray","3","2","2","20.029999999999927","[18.200000000000728,16.399999999997817,55.19999999999709,11.500000000003638,16.599999999998545,16.700000000000728,16.700000000000728,16.700000000000728,16.599999999998545,15.700000000000728]","10"
"-1","-1","RDK","63","16883","0.0-1.0-62.0","false","a,l","l","200","true","200","1","0","0.5","2","-1","1","600","400","white","gray","3","2","2","18.227272727272727","[18.5,15.099999999998545,16.799999999999272,16.600000000002183,16.799999999999272,44.39999999999782,4.700000000004366,16.399999999997817,17.700000000000728,16.799999999999272,16.700000000000728]","11"
"-1","-1","RDK","64","17100","0.0-1.0-63.0","false","a,l","l","200","true","200","1","0","0.5","2","-1","1","600","400","white","gray","3","2","2","18.42999999999993","[23.299999999999272,28.100000000002183,16.200000000000728,16.599999999994907,16.799999999999272,16.600000000002183,16.799999999999272,16.700000000000728,16.5,16.700000000000728]","10"
"-1","-1","RDK","65","17302","0.0-1.0-64.0","false","a,l","l","200","true","200","1","0","0.5","2","-1","1","600","400","white","gray","3","2","2","16.658333333333456","[17.400000000005093,15.899999999997817,16.5,16.600000000002183,22.39999999999418,10.500000000003638,17.200000000000728,16.700000000000728,16.69999999999709,16.700000000000728,16.599999999998545,16.700000000000728]","12"
"-1","-1","RDK","66","17519","0.0-1.0-65.0","false","a,l","a","200","true","200","1","180","0.5","2","-1","1","600","400","white","gray","3","2","2","16.70000000000012","[19.30000000000291,25.399999999997817,4.799999999999272,17.500000000003638,16.69999999999709,16.700000000000728,16.700000000000728,16.600000000002183,16.599999999998545,16.700000000000728,16.799999999999272,16.599999999998545]","12"
"-1","-1","RDK","67","17736","0.0-1.0-66.0","false","a,l","l","200","true","200","1","0","0.5","2","-1","1","600","400","white","gray","3","2","2","16.675000000000182","[17.200000000004366,16.19999999999709,16.200000000000728,17,16.400000000001455,16.69999999999709,17,16.600000000002183,16.799999999999272,16.700000000000728,16.700000000000728,16.599999999998545]","12"
"-1","-1","RDK","68","17953","0.0-1.0-67.0","false","a,l","l","200","true","200","1","0","0.5","2","-1","1","600","400","white","gray","3","2","2","16.691666666666908","[17.200000000004366,16.299999999995634,16.799999999999272,16.700000000000728,16.400000000001455,30.899999999997817,2.100000000002183,17.100000000002183,16.299999999999272,17.200000000000728,16.69999999999709,16.600000000002183]","12"
"-1","-1","RDK","69","18171","0.0-1.0-68.0","false","a,l","l","200","true","200","1","0","0.5","2","-1","1","600","400","white","gray","3","2","2","18.209090909090843","[27.700000000000728,25.899999999997817,13.299999999999272,16.599999999998545,16.799999999999272,16.700000000000728,15.500000000003638,17.799999999999272,16.200000000000728,17.19999999999709,16.600000000002183]","11"
"-1","-1","RDK","70","18388","0.0-1.0-69.0","false","a,l","a","200","true","200","1","180","0.5","2","-1","1","600","400","white","gray","3","2","2","16.641666666666726","[16.900000000001455,16.69999999999709,16.600000000002183,16.599999999998545,16.700000000000728,16.700000000000728,16.69999999999709,16.700000000000728,16.700000000000728,16.599999999998545,15.900000000001455,16.900000000001455]","12"
"-1","-1","RDK","71","18603","0.0-1.0-70.0","false","a,l","a","200","true","200","1","180","0.5","2","-1","1","600","400","white","gray","3","2","2","16.699999999999818","[17.299999999999272,16.299999999999272,16.700000000000728,16.599999999998545,16.700000000000728,16.600000000002183,25.700000000000728,6.799999999995634,17.5,16.700000000000728,16.700000000000728,16.799999999999272]","12"
"-1","-1","RDK","72","18817","0.0-1.0-71.0","false","a,l","l","200","true","200","1","0","0.5","2","-1","1","600","400","white","gray","3","2","2","18.21818181818195","[20.100000000002183,38.79999999999927,8,16.700000000000728,16.599999999998545,16,17.400000000001455,16.700000000000728,16.700000000000728,16.599999999998545,16.799999999999272]","11"
"-1","-1","RDK","73","19035","0.0-1.0-72.0","false","a,l","a","200","true","200","1","180","0.5","2","-1","1","600","400","white","gray","3","2","2","16.58333333333303","[16.399999999997817,16.5,16.599999999998545,16.700000000000728,20.500000000003638,12.19999999999709,17.299999999999272,16.700000000000728,16.700000000000728,16.599999999998545,16.700000000000728,16.099999999998545]","12"
"-1","-1","RDK","74","19253","0.0-1.0-73.0","false","a,l","a","200","true","200","1","180","0.5","2","-1","1","600","400","white","gray","3","2","2","18.21818181818162","[18.099999999994907,15.400000000001455,16.700000000000728,16.799999999999272,16.700000000000728,35.50000000000364,14.299999999995634,16.80000000000291,16.69999999999709,16.700000000000728,16.700000000000728]","11"
"-1","-1","RDK","75","19470","0.0-1.0-74.0","false","a,l","a","200","true","200","1","180","0.5","2","-1","1","600","400","white","gray","3","2","2","18.209090909090843","[17.399999999997817,36.60000000000218,11.899999999997817,17.600000000002183,16.69999999999709,16.700000000000728,16.700000000000728,16.700000000000728,16.5,16.799999999999272,16.700000000000728]","11"
"-1","-1","RDK","76","19687","0.0-1.0-75.0","false","a,l","l","200","true","200","1","0","0.5","2","-1","1","600","400","white","gray","3","2","2","16.691666666666304","[17.399999999997817,16.100000000002183,16.69999999999709,16.600000000002183,15.899999999997817,17.500000000003638,16.69999999999709,16.700000000000728,16.299999999999272,17.099999999998545,16.600000000002183,16.69999999999709]","12"
"-1","-1","RDK","77","19900","0.0-1.0-76.0","false","a,l","l","200","true","200","1","0","0.5","2","-1","1","600","400","white","gray","3","2","2","16.71818181818195","[17.399999999997817,15.700000000000728,17.399999999997817,16.700000000000728,16.700000000000728,16.5,30.799999999999272,2.8000000000029104,16.399999999997817,16.700000000000728,16.80000000000291]","11"
"-1","-1","RDK","78","20103","0.0-1.0-77.0","false","a,l","a","200","true","200","1","180","0.5","2","-1","1","600","400","white","gray","3","2","2","18.109090909090977","[16.000000000003638,16.39999999999418,45.10000000000218,4.200000000000728,17.299999999999272,16.799999999999272,16.700000000000728,15.700000000000728,17.599999999998545,16.80000000000291,16.599999999998545]","11"
"-1","-1","RDK","79","20320","0.0-1.0-78.0","false","a,l","a","200","true","200","1","180","0.5","2","-1","1","600","400","white","gray","3","2","2","18.21818181818195","[17.200000000004366,15.799999999995634,17.299999999999272,16.700000000000728,35.900000000001455,14,16.700000000000728,16.700000000000728,16.69999999999709,16.700000000000728,16.700000000000728]","11"
"-1","-1","RDK","80","20537","0.0-1.0-79.0","false","a,l","l","200","true","200","1","0","0.5","2","-1","1","600","400","white","gray","3","2","2","16.691666666666606","[23.999999999996362,13.700000000000728,11.900000000001455,17.30000000000291,16.700000000000728,16.69999999999345,16.600000000002183,16.700000000000728,16.700000000000728,16.599999999998545,16.700000000000728,16.700000000000728]","12"
"-1","-1","RDK","81","20753","0.0-1.0-80.0","false","a,l","a","200","true","200","1","180","0.5","2","-1","1","600","400","white","gray","3","2","2","16.691666666666304","[17.299999999995634,16.30000000000291,16.599999999998545,16.600000000002183,16.799999999999272,16.600000000002183,16.799999999999272,16.599999999994907,16.500000000003638,16.799999999999272,16.799999999999272,16.599999999998545]","12"
"-1","-1","RDK","82","20968","0.0-1.0-81.0","false","a,l","l","200","true","200","1","0","0.5","2","-1","1","600","400","white","gray","3","2","2","18.440000000000147","[17.999999999996362,16.30000000000291,16.599999999998545,16.700000000000728,16.799999999999272,35.599999999998545,13.600000000002183,17.5,16.600000000002183,16.700000000000728]","10"
"-1","-1","RDK","83","21170","0.0-1.0-82.0","false","a,l","l","200","true","200","1","0","0.5","2","-1","1","600","400","white","gray","3","2","2","18.163636363636297","[16.700000000000728,47.09999999999491,3.500000000003638,15.700000000000728,16.799999999999272,16.700000000000728,16.599999999998545,16.700000000000728,16.600000000002183,16.799999999999272,16.599999999998545]","11"
"-1","-1","RDK","84","21387","0.0-1.0-83.0","false","a,l","a","200","true","200","1","180","0.5","2","-1","1","600","400","white","gray","3","2","2","16.691666666666606","[17.400000000001455,16.200000000000728,16.599999999994907,16.600000000002183,22.299999999999272,11.099999999998545,20.30000000000291,13.099999999998545,16.700000000000728,16.599999999998545,16.80000000000291,16.599999999998545]","12"
"-1","-1","RDK","85","21601","0.0-1.0-84.0","false","a,l","a","200","true","200","1","180","0.5","2","-1","1","600","400","white","gray","3","2","2","16.783333333333456","[23.900000000001455,10.399999999997817,16.799999999999272,17.000000000003638,16.600000000002183,16.69999999999345,16.700000000000728,16.000000000003638,16.899999999997817,16.700000000000728,17,16.700000000000728]","12"
"-1","-1","RDK","86","21855","0.0-1.0-85.0","false","a,l","l","200","true","200","1","0","0.5","2","-1","1","600","400","white","gray","3","2","2","21.418181818182017","[17.299999999999272,16.200000000000728,16.500000000003638,16.599999999998545,16.799999999999272,16.700000000000728,16.600000000002183,16.69999999999345,16.700000000000728,16.000000000003638,69.5]","11"
"-1","-1","RDK","87","22068","0.0-1.0-86.0","false","a,l","a","200","true","200","1","180","0.5","2","-1","1","600","400","white","gray","3","2","2","16.772727272727273","[17.900000000001455,16.599999999998545,16.700000000000728,16.600000000002183,16.599999999998545,16.700000000000728,21.299999999999272,11.5,17.299999999999272,16.5,16.799999999999272]","11"
"-1","-1","RDK","88","22271","0.0-1.0-87.0","false","a,l","l","200","true","200","1","0","0.5","2","-1","1","600","400","white","gray","3","2","2","18.181818181818514","[16.500000000003638,16.599999999998545,36.60000000000218,13.599999999998545,16.5,16.799999999999272,16.600000000002183,16.599999999998545,16.700000000000728,16.600000000002183,16.899999999997817]","11"
"-1","-1","RDK","89","22487","0.0-1.0-88.0","false","a,l","a","200","true","200","1","180","0.5","2","-1","1","600","400","white","gray","3","2","2","18.209090909091174","[17.700000000000728,15.799999999999272,16.799999999999272,38.20000000000073,11.000000000003638,17.399999999997817,16.799999999999272,16.799999999999272,16.5,16.600000000002183,16.700000000000728]","11"
"-1","-1","RDK","90","22704","0.0-1.0-89.0","false","a,l","l","200","true","200","1","0","0.5","2","-1","1","600","400","white","gray","3","2","2","16.683333333333092","[17.099999999998545,16.299999999995634,16.80000000000291,16.69999999999709,16.700000000000728,16.700000000000728,29.400000000001455,2.7999999999992724,17.600000000002183,16.799999999999272,16.700000000000728,16.599999999998545]","12"
"-1","-1","RDK","91","22921","0.0-1.0-90.0","false","a,l","a","200","true","200","1","180","0.5","2","-1","1","600","400","white","gray","3","2","2","16.691666666666606","[17.400000000001455,15.900000000001455,31.799999999995634,2.3000000000029104,15.299999999999272,17.599999999998545,16.700000000000728,16.599999999998545,16.700000000000728,16.600000000002183,16.69999999999709,16.700000000000728]","12"
"-1","-1","RDK","92","23137","0.0-1.0-91.0","false","a,l","a","200","true","200","1","180","0.5","2","-1","1","600","400","white","gray","3","2","2","18.21818181818162","[17.200000000000728,16.5,16.599999999998545,16.700000000000728,35,14.900000000001455,16.69999999999709,16.700000000000728,16.799999999999272,16.5,16.799999999999272]","11"
"-1","-1","RDK","93","23354","0.0-1.0-92.0","false","a,l","a","200","true","200","1","180","0.5","2","-1","1","600","400","white","gray","3","2","2","16.699999999999818","[21.999999999996362,26,2.2000000000043656,16.69999999999709,16.80000000000291,16.599999999998545,15.899999999997817,17.500000000003638,16.700000000000728,16.599999999998545,16.700000000000728,16.69999999999709]","12"
"-1","-1","RDK","94","23572","0.0-1.0-93.0","false","a,l","l","200","true","200","1","0","0.5","2","-1","1","600","400","white","gray","3","2","2","20.040000000000145","[18.099999999998545,15.5,16.30000000000291,62.69999999999709,8.500000000003638,12,16.700000000000728,17.19999999999709,16.700000000000728,16.700000000000728]","10"
"-1","-1","RDK","95","23788","0.0-1.0-94.0","false","a,l","l","200","true","200","1","0","0.5","2","-1","1","600","400","white","gray","3","2","2","18.21818181818195","[17.200000000004366,43.69999999999709,5.30000000000291,17.499999999996362,16.600000000002183,16,17.399999999997817,16.600000000002183,16.700000000000728,16.700000000000728,16.69999999999709]","11"
"-1","-1","RDK","96","24002","0.0-1.0-95.0","false","a,l","l","200","true","200","1","0","0.5","2","-1","1","600","400","white","gray","3","2","2","16.772727272727273","[18.299999999999272,16.100000000002183,23.799999999995634,8.900000000001455,17.299999999999272,16.799999999999272,16.700000000000728,16.5,16.700000000000728,16.700000000000728,16.700000000000728]","11"
"-1","-1","RDK","97","24205","0.0-1.0-96.0","false","a,l","a","200","true","200","1","180","0.5","2","-1","1","600","400","white","gray","3","2","2","18.163636363636627","[16.700000000000728,16.400000000001455,16.600000000002183,16.69999999999709,16.600000000002183,34.49999999999636,15.60000000000582,16.69999999999709,16.599999999998545,16.599999999998545,16.80000000000291]","11"
"-1","-1","RDK","98","24419","0.0-1.0-97.0","false","a,l","a","200","true","200","1","180","0.5","2","-1","1","600","400","white","gray","3","2","2","18.290909090909157","[25.900000000001455,26.69999999999709,15.100000000002183,16.700000000000728,16.69999999999709,16.400000000001455,17,16.799999999999272,16.400000000001455,16.799999999999272,16.700000000000728]","11"
"-1","-1","RDK","99","24638","0.0-1.0-98.0","false","a,l","a","200","true","200","1","180","0.5","2","-1","1","600","400","white","gray","3","2","2","16.691666666666908","[17.099999999998545,16.5,16.500000000003638,25.599999999998545,7.5,18.5,15.200000000000728,16.700000000000728,16.700000000000728,16.69999999999709,16.600000000002183,16.700000000000728]","12"
"-1","-1","RDK","100","24855","0.0-1.0-99.0","false","a,l","a","200","true","200","1","180","0.5","2","-1","1","600","400","white","gray","3","2","2","16.691666666666606","[17.400000000001455,16.099999999998545,16.799999999999272,16.599999999998545,16.700000000000728,16.600000000002183,20.5,13,23.299999999999272,10.200000000000728,16.400000000001455,16.69999999999709]","12"
"-1","-1","RDK","101","25071","0.0-1.0-100.0","false","a,l","l","200","true","200","1","0","0.5","2","-1","1","600","400","white","gray","3","2","2","16.699999999999818","[17.200000000000728,16.400000000001455,16.599999999998545,22.299999999999272,11.19999999999709,16.700000000000728,16.600000000002183,16.69999999999709,16.700000000000728,16.600000000002183,16.700000000000728,16.69999999999709]","12"
"-1","-1","RDK","102","25288","0.0-1.0-101.0","false","a,l","a","200","true","200","1","180","0.5","2","-1","1","600","400","white","gray","3","2","2","16.699999999999818","[17.5,16,16.900000000001455,16.599999999998545,16.600000000002183,27.599999999998545,5.599999999998545,16.799999999999272,16.799999999999272,16.599999999998545,16.700000000000728,16.700000000000728]","12"
"-1","-1","RDK","103","25504","0.0-1.0-102.0","false","a,l","l","200","true","200","1","0","0.5","2","-1","1","600","400","white","gray","3","2","2","16.70833333333303","[17.799999999999272,25.299999999999272,6.700000000000728,17.200000000000728,16.700000000000728,16.69999999999709,16.700000000000728,16.600000000002183,16.700000000000728,16.599999999994907,16.799999999999272,16.700000000000728]","12"
"-1","-1","RDK","104","25722","0.0-1.0-103.0","false","a,l","l","200","true","200","1","0","0.5","2","-1","1","600","400","white","gray","3","2","2","20.040000000000145","[17.599999999998545,15.900000000001455,62.69999999999709,4.100000000002183,16.5,16.799999999999272,16.700000000000728,16.700000000000728,16.700000000000728,16.700000000000728]","10"
"-1","-1","RDK","105","25936","0.0-1.0-104.0","false","a,l","a","200","true","200","1","180","0.5","2","-1","1","600","400","white","gray","3","2","2","18.470000000000073","[18.200000000000728,16.399999999997817,16.399999999997817,16.900000000001455,16.799999999999272,38.60000000000218,11,17.099999999998545,16.700000000000728,16.600000000002183]","10"
"-1","-1","RDK","106","26138","0.0-1.0-105.0","false","a,l","a","200","true","200","1","180","0.5","2","-1","1","600","400","white","gray","3","2","2","18.172727272727403","[16.400000000001455,16.799999999999272,40.5,9.200000000000728,16.69999999999709,16.80000000000291,16.599999999998545,16.100000000002183,17.399999999997817,16.200000000000728,17.200000000000728]","11"
"-1","-1","RDK","107","26355","0.0-1.0-106.0","false","a,l","l","200","true","200","1","0","0.5","2","-1","1","600","400","white","gray","3","2","2","16.691666666666606","[18.200000000000728,15.5,16.600000000002183,15.69999999999709,17.600000000002183,21.899999999997817,10.600000000002183,17.599999999994907,16.600000000002183,16.700000000000728,16.700000000000728,16.599999999998545]","12"
"-1","-1","RDK","108","26572","0.0-1.0-107.0","false","a,l","l","200","true","200","1","0","0.5","2","-1","1","600","400","white","gray","3","2","2","18.209090909090843","[36.30000000000291,13.799999999999272,16.799999999999272,16.600000000002183,16.69999999999709,16.700000000000728,16.700000000000728,16.600000000002183,16.599999999994907,16.799999999999272,16.700000000000728]","11"
"-1","-1","RDK","109","26789","0.0-1.0-108.0","false","a,l","a","200","true","200","1","180","0.5","2","-1","1","600","400","white","gray","3","2","2","16.691666666666908","[17.400000000001455,16.19999999999709,27.400000000001455,5.100000000002183,32.39999999999782,7.099999999998545,11.30000000000291,15.999999999996362,17.400000000005093,16.599999999998545,16.700000000000728,16.700000000000728]","12"
"-1","-1","RDK","110","27003","0.0-1.0-109.0","false","a,l","a","200","true","200","1","180","0.5","2","-1","1","600","400","white","gray","3","2","2","16.75454545454539","[18.099999999998545,16.19999999999709,16.500000000003638,16.799999999999272,16.599999999998545,16.700000000000728,20.399999999997817,12.500000000003638,17.099999999998545,16.700000000000728,16.700000000000728]","11"
"-1","-1","RDK","111","27205","0.0-1.0-110.0","false","a,l","a","200","true","200","1","180","0.5","2","-1","1","600","400","white","gray","3","2","2","18.172727272727403","[16.500000000003638,16.5,36.5,13.499999999996362,16.799999999999272,16.600000000002183,16.700000000000728,16.69999999999709,16.700000000000728,16.600000000002183,16.799999999999272]","11"
"-1","-1","RDK","112","27425","0.0-1.0-111.0","false","a,l","a","200","true","200","1","180","0.5","2","-1","1","600","400","white","gray","3","2","2","16.70000000000012","[18.799999999999272,14.900000000001455,16.600000000002183,16.69999999999709,16.600000000002183,22.499999999996362,10.799999999999272,16.700000000000728,16.700000000000728,16.700000000000728,16.700000000000728,16.700000000000728]","12"
"-1","-1","RDK","113","27639","0.0-1.0-112.0","false","a,l","l","200","true","200","1","0","0.5","2","-1","1","600","400","white","gray","3","2","2","22.255555555555475","[72,11.200000000004366,17.099999999998545,16.599999999998545,16.700000000000728,16.700000000000728,16.700000000000728,16.599999999994907,16.700000000000728]","9"
"-1","-1","RDK","114","27856","0.0-1.0-113.0","false","a,l","l","200","true","200","1","0","0.5","2","-1","1","600","400","white","gray","3","2","2","16.691666666666908","[24.599999999998545,9.100000000002183,16.599999999998545,16.700000000000728,16.600000000002183,16.69999999999709,16.700000000000728,16.700000000000728,16.600000000002183,16.69999999999709,16.700000000000728,16.600000000002183]","12"
"-1","-1","RDK","115","28070","0.0-1.0-114.0","false","a,l","a","200","true","200","1","180","0.5","2","-1","1","600","400","white","gray","3","2","2","16.78181818181838","[23.700000000000728,10.899999999997817,16.600000000002183,16.799999999999272,16.700000000000728,16.69999999999709,16.600000000002183,16.700000000000728,16.599999999998545,16.700000000000728,16.600000000002183]","11"
"-1","-1","RDK","116","28272","0.0-1.0-115.0","false","a,l","l","200","true","200","1","0","0.5","2","-1","1","600","400","white","gray","3","2","2","16.649999999999938","[17.299999999999272,15.900000000001455,15.799999999999272,17.5,16.299999999999272,17.099999999998545,16.600000000002183,16.799999999999272,16.599999999998545,16.700000000000728,16.700000000000728,16.5]","12"
"-1","-1","RDK","117","28487","0.0-1.0-116.0","false","a,l","l","200","true","200","1","0","0.5","2","-1","1","600","400","white","gray","3","2","2","18.21818181818195","[17.299999999999272,16.400000000001455,16.700000000000728,16.600000000002183,16.69999999999709,36,13.5,17.099999999998545,16.700000000000728,16.700000000000728,16.700000000000728]","11"
"-1","-1","RDK","118","28706","0.0-1.0-117.0","false","a,l","l","200","true","200","1","0","0.5","2","-1","1","600","400","white","gray","3","2","2","18.21818181818195","[25.30000000000291,27.099999999998545,14.5,16.700000000000728,16.700000000000728,16.599999999998545,16.700000000000728,16.700000000000728,16.69999999999709,16.599999999998545,16.80000000000291]","11"
"-1","-1","RDK","119","28923","0.0-1.0-118.0","false","a,l","l","200","true","200","1","0","0.5","2","-1","1","600","400","white","gray","3","2","2","18.21818181818195","[17.400000000001455,16.19999999999709,36.80000000000291,13.299999999999272,18.599999999998545,14.500000000003638,17,16.5,16.700000000000728,16.69999999999709,16.700000000000728]","11"
"-1","-1","RDK","120","29139","0.0-1.0-119.0","false","a,l","a","200","true","200","1","180","0.5","2","-1","1","600","400","white","gray","3","2","2","16.691666666666908","[17.400000000001455,16.299999999995634,16.600000000002183,16.700000000000728,16.700000000000728,26.700000000000728,6.5,16.69999999999709,16.700000000000728,16.700000000000728,16.700000000000728,16.600000000002183]","12"
"-1","-1","RDK","121","29355","0.0-1.0-120.0","false","a,l","l","200","true","200","1","0","0.5","2","-1","1","600","400","white","gray","3","2","2","18.227272727273057","[18.200000000000728,38.50000000000364,9.599999999998545,17.5,16.599999999998545,16.700000000000728,16.700000000000728,16.599999999998545,16.600000000002183,16.799999999999272,16.700000000000728]","11"
"-1","-1","RDK","122","29573","0.0-1.0-121.0","false","a,l","l","200","true","200","1","0","0.5","2","-1","1","600","400","white","gray","3","2","2","20.029999999999927","[17.700000000000728,16.200000000000728,16.5,16.5,56.89999999999782,9.5,17.099999999998545,16.600000000002183,16.599999999998545,16.700000000000728]","10"
"-1","-1","RDK","123","29790","0.0-1.0-122.0","false","a,l","a","200","true","200","1","180","0.5","2","-1","1","600","400","white","gray","3","2","2","16.699999999999818","[19.5,14.299999999999272,16.600000000002183,16.19999999999709,16.400000000001455,17.299999999999272,31.599999999998545,2.5,15.000000000003638,17.69999999999709,16.599999999998545,16.700000000000728]","12"
"-1","-1","RDK","124","30004","0.0-1.0-123.0","false","a,l","a","200","true","200","1","180","0.5","2","-1","1","600","400","white","gray","3","2","2","18.440000000000147","[25.900000000001455,38.099999999998545,4.200000000000728,16.200000000000728,16.799999999999272,16.500000000003638,16.799999999999272,16.799999999999272,16.399999999997817,16.700000000000728]","10"
"-1","-1","RDK","125","30207","0.0-1.0-124.0","false","a,l","l","200","true","200","1","0","0.5","2","-1","1","600","400","white","gray","3","2","2","16.649999999999938","[17.399999999997817,15.69999999999709,16.700000000000728,16.600000000002183,16.700000000000728,16.700000000000728,16.200000000000728,17,16.799999999999272,16.700000000000728,16.69999999999709,16.600000000002183]","12"
"-1","-1","RDK","126","30422","0.0-1.0-125.0","false","a,l","a","200","true","200","1","180","0.5","2","-1","1","600","400","white","gray","3","2","2","18.209090909090843","[19,33.79999999999927,14.099999999998545,16.599999999998545,16.700000000000728,15.80000000000291,17.599999999998545,16.599999999998545,16.700000000000728,16.700000000000728,16.700000000000728]","11"
"-1","-1","RDK","127","30639","0.0-1.0-126.0","false","a,l","l","200","true","200","1","0","0.5","2","-1","1","600","400","white","gray","3","2","2","16.60833333333297","[17.19999999999709,16.400000000001455,16.700000000000728,23.399999999997817,9.799999999999272,16.900000000001455,16.5,16.700000000000728,16.69999999999709,16.700000000000728,16.600000000002183,15.69999999999709]","12"
"-1","-1","RDK","128","30855","0.0-1.0-127.0","false","a,l","a","200","true","200","1","180","0.5","2","-1","1","600","400","white","gray","3","2","2","18.227272727272727","[17.5,16.200000000000728,16.700000000000728,16.69999999999709,16.700000000000728,35.20000000000073,14.69999999999709,16.700000000000728,16.700000000000728,16.700000000000728,16.700000000000728]","11"
"-1","-1","RDK","129","31073","0.0-1.0-128.0","false","a,l","a","200","true","200","1","180","0.5","2","-1","1","600","400","white","gray","3","2","2","18.209090909090843","[25,26.400000000001455,15.5,16.799999999999272,16.599999999998545,16.700000000000728,16.700000000000728,16.299999999999272,17.100000000002183,16.599999999994907,16.600000000002183]","11"
"-1","-1","RDK","130","31291","0.0-1.0-129.0","false","a,l","a","200","true","200","1","180","0.5","2","-1","1","600","400","white","gray","3","2","2","16.691666666666908","[18.400000000001455,15.19999999999709,26.600000000002183,6,16.900000000001455,18.399999999997817,15.30000000000291,16.799999999999272,16.700000000000728,16.099999999994907,17.30000000000291,16.600000000002183]","12"
"-1","-1","RDK","131","31506","0.0-1.0-130.0","false","a,l","l","200","true","200","1","0","0.5","2","-1","1","600","400","white","gray","3","2","2","20.029999999999927","[17.400000000001455,16.19999999999709,16.700000000000728,16.700000000000728,16.700000000000728,58.29999999999927,8.299999999999272,16.600000000002183,16.599999999998545,16.799999999999272]","10"
"-1","-1","RDK","132","31723","0.0-1.0-131.0","false","a,l","l","200","true","200","1","0","0.5","2","-1","1","600","400","white","gray","3","2","2","16.691666666666304","[17.299999999995634,16.30000000000291,29.899999999997817,3.399999999997817,16.500000000003638,16.799999999999272,16.700000000000728,16.69999999999709,16.700000000000728,16.600000000002183,15.69999999999709,17.700000000000728]","12"
"-1","-1","RDK","133","31941","0.0-1.0-132.0","false","a,l","l","200","true","200","1","0","0.5","2","-1","1","600","400","white","gray","3","2","2","18.200000000000067","[18.19999999999709,15.200000000000728,16.799999999999272,16.600000000002183,35.79999999999927,14,16.999999999996362,16.700000000000728,16.5,16.700000000000728,16.700000000004366]","11"
"-1","-1","RDK","134","32157","0.0-1.0-133.0","false","a,l","a","200","true","200","1","180","0.5","2","-1","1","600","400","white","gray","3","2","2","16.70000000000012","[17.900000000001455,24.299999999999272,7.899999999997817,16.900000000001455,16.69999999999709,16.700000000000728,16.700000000000728,16.700000000000728,16.000000000003638,17.19999999999709,16.700000000000728,16.700000000000728]","12"
"-1","-1","RDK","135","32374","0.0-1.0-134.0","false","a,l","a","200","true","200","1","180","0.5","2","-1","1","600","400","white","gray","3","2","2","18.209090909090843","[17.099999999998545,16.400000000005093,16.700000000000728,46.99999999999636,3,16.700000000000728,16.700000000000728,16.700000000000728,16.69999999999709,16.599999999998545,16.700000000000728]","11"
"-1","-1","RDK","136","32590","0.0-1.0-135.0","false","a,l","a","200","true","200","1","180","0.5","2","-1","1","600","400","white","gray","3","2","2","16.683333333333394","[17.200000000000728,16.200000000000728,16.80000000000291,16.700000000000728,16.599999999994907,16.5,19.799999999999272,13.400000000001455,16.999999999996362,16.700000000000728,16.700000000000728,16.600000000002183]","12"
"-1","-1","RDK","137","32807","0.0-1.0-136.0","false","a,l","l","200","true","200","1","0","0.5","2","-1","1","600","400","white","gray","3","2","2","18.21818181818228","[27.600000000002183,26.099999999998545,12.30000000000291,17.600000000002183,16.799999999991996,16.40000000000873,16.900000000001455,16.69999999999709,15.799999999995634,17.5,16.700000000004366]","11"
"-1","-1","RDK","138","33024","0.0-1.0-137.0","false","a,l","a","200","true","200","1","180","0.5","2","-1","1","600","400","white","gray","3","2","2","16.691666666666908","[17.400000000001455,16.10000000000582,16.69999999999709,16.599999999998545,16.60000000000582,16.89999999999418,16.700000000004366,16.59999999999127,16.700000000004366,16.69999999999709,16.700000000004366,16.599999999998545]","12"
"-1","-1","RDK","139","33242","0.0-1.0-138.0","false","a,l","a","200","true","200","1","180","0.5","2","-1","1","600","400","white","gray","3","2","2","16.70000000000012","[18.299999999995634,15.5,16.500000000007276,16.69999999999709,16.69999999999709,16.700000000004366,26.400000000001455,6.799999999995634,16.400000000001455,16.89999999999418,16.800000000010186,16.69999999999709]","12"
"-1","-1","RDK","140","33459","0.0-1.0-139.0","false","a,l","a","200","true","200","1","180","0.5","2","-1","1","600","400","white","gray","3","2","2","20.030000000000292","[18.900000000001455,62.5,2.3000000000029104,16.5,16.69999999999709,16.700000000004366,16.69999999999709,16.700000000004366,16.59999999999127,16.700000000004366]","10"
"-1","-1","RDK","141","33674","0.0-1.0-140.0","false","a,l","l","200","true","200","1","0","0.5","2","-1","1","600","400","white","gray","3","2","2","16.70000000000012","[17.299999999995634,16.400000000001455,16.099999999998545,17.30000000000291,16.599999999998545,23.200000000004366,10.099999999991269,16.700000000004366,16.69999999999709,16.69999999999709,16.700000000004366,16.60000000000582]","12"
"-1","-1","RDK","142","33891","0.0-1.0-141.0","false","a,l","l","200","true","200","1","0","0.5","2","-1","1","600","400","white","gray","3","2","2","16.683333333332484","[17.099999999998545,25.30000000000291,7.69999999999709,16.799999999995634,16.69999999999709,16.60000000000582,16.700000000004366,16.69999999999709,16,17.299999999995634,16.5,16.799999999995634]","12"
"-1","-1","RDK","143","34107","0.0-1.0-142.0","false","a,l","a","200","true","200","1","180","0.5","2","-1","1","600","400","white","gray","3","2","2","16.70000000000012","[16.89999999999418,16.700000000004366,16.599999999998545,20.60000000000582,12.299999999995634,17.200000000004366,17.099999999998545,16.19999999999709,16.60000000000582,16.799999999995634,15.799999999995634,17.60000000000582]","12"
"-1","-1","RDK","144","34324","0.0-1.0-143.0","false","a,l","l","200","true","200","1","0","0.5","2","-1","1","600","400","white","gray","3","2","2","18.21818181818195","[16.400000000001455,17.200000000004366,16.59999999999127,16.80000000000291,16.700000000004366,35.19999999999709,14.30000000000291,17.099999999998545,16.700000000004366,16.69999999999709,16.69999999999709]","11"
"-1","-1","RDK","145","34541","0.0-1.0-144.0","false","a,l","a","200","true","200","1","180","0.5","2","-1","1","600","400","white","gray","3","2","2","18.209090909090513","[16.30000000000291,37.59999999999127,12.700000000004366,17,16,17.30000000000291,16.69999999999709,16.700000000004366,16.69999999999709,16.599999999998545,16.69999999999709]","11"
"-1","-1","RDK","146","34758","0.0-1.0-145.0","false","a,l","a","200","true","200","1","180","0.5","2","-1","1","600","400","white","gray","3","2","2","16.699999999999516","[16.39999999999418,17.099999999998545,16.700000000004366,16.19999999999709,17.19999999999709,16.700000000004366,16.599999999998545,16.69999999999709,16.69999999999709,16.700000000004366,16.69999999999709,16.700000000004366]","12"
"-1","-1","RDK","147","34973","0.0-1.0-146.0","false","a,l","a","200","true","200","1","180","0.5","2","-1","1","600","400","white","gray","3","2","2","18.118181818182084","[17.5,16.200000000004366,16.599999999998545,16.700000000004366,16.69999999999709,35.400000000001455,14.39999999999418,16.80000000000291,16.700000000004366,16.69999999999709,15.599999999998545]","11"
"-1","-1","RDK","148","35191","0.0-1.0-147.0","false","a,l","l","200","true","200","1","0","0.5","2","-1","1","600","400","white","gray","3","2","2","18.209090909090513","[24.900000000001455,26.400000000001455,14.900000000001455,17.400000000001455,16.69999999999709,16.700000000004366,16.59999999999127,16.700000000004366,16.599999999998545,16.69999999999709,16.69999999999709]","11"
"-1","-1","RDK","149","35410","0.0-1.0-148.0","false","a,l","l","200","true","200","1","0","0.5","2","-1","1","600","400","white","gray","3","2","2","17.033333333333456","[17.200000000004366,16.19999999999709,16.69999999999709,24.60000000000582,7.599999999991269,18,16.40000000000873,16.799999999995634,16.60000000000582,16.59999999999127,16.700000000004366,21]","12"
"-1","-1","RDK","150","35626","0.0-1.0-149.0","false","a,l","l","200","true","200","1","0","0.5","2","-1","1","600","400","white","gray","3","2","2","16.758333333333212","[18,16.299999999995634,16.80000000000291,16.5,16.69999999999709,16.700000000004366,25.19999999999709,8,16.799999999995634,16.60000000000582,16.5,17]","12"
"-1","-1","RDK","151","35839","0.0-1.0-150.0","false","a,l","a","200","true","200","1","180","0.5","2","-1","1","600","400","white","gray","3","2","2","18.4","[17.30000000000291,39.599999999998545,10.299999999995634,16.700000000004366,16.599999999998545,16.69999999999709,16.700000000004366,16.69999999999709,15.80000000000291,17.599999999998545]","10"
"-1","-1","RDK","152","36041","0.0-1.0-151.0","false","a,l","a","200","true","200","1","180","0.5","2","-1","1","600","400","white","gray","3","2","2","18.163636363636627","[17.19999999999709,15.80000000000291,16.80000000000291,16.599999999998545,43.099999999998545,6.900000000001455,16.599999999998545,16.799999999995634,16.69999999999709,16.40000000000873,16.900000000001455]","11"
"-1","-1","RDK","153","36256","0.0-1.0-152.0","false","a,l","l","200","true","200","1","0","0.5","2","-1","1","600","400","white","gray","3","2","2","16.74545454545428","[22.999999999992724,15.900000000001455,11.900000000001455,16.599999999998545,16.799999999995634,16.60000000000582,16.700000000004366,16.69999999999709,16.69999999999709,16.599999999998545,16.700000000004366]","11"
"-1","-1","RDK","154","36458","0.0-1.0-153.0","false","a,l","l","200","true","200","1","0","0.5","2","-1","1","600","400","white","gray","3","2","2","16.558333333332484","[16.09999999999127,16.60000000000582,16.599999999998545,25.599999999998545,6.80000000000291,17.5,16.69999999999709,16.69999999999709,16.60000000000582,16.799999999995634,16.60000000000582,16.09999999999127]","12"
"-1","-1","RDK","155","36675","0.0-1.0-154.0","false","a,l","l","200","true","200","1","0","0.5","2","-1","1","600","400","white","gray","3","2","2","18.21818181818195","[17.200000000004366,15.699999999989814,17.400000000001455,16.700000000004366,16.69999999999709,35.60000000000582,14.19999999999709,16.80000000000291,16.799999999995634,16.60000000000582,16.69999999999709]","11"
"-1","-1","RDK","156","36892","0.0-1.0-155.0","false","a,l","a","200","true","200","1","180","0.5","2","-1","1","600","400","white","gray","3","2","2","18.209090909091174","[24.80000000000291,26.599999999998545,15.500000000007276,16.699999999989814,16.700000000004366,16.69999999999709,16.60000000000582,16.39999999999418,16.900000000001455,16.69999999999709,16.700000000004366]","11"
"-1","-1","RDK","157","37110","0.0-1.0-156.0","false","a,l","l","200","true","200","1","0","0.5","2","-1","1","600","400","white","gray","3","2","2","18.181818181818183","[18,15.799999999995634,40.10000000000582,9.499999999992724,20.500000000007276,13.19999999999709,16.599999999998545,16.69999999999709,16.69999999999709,16.700000000004366,16.200000000004366]","11"
"-1","-1","RDK","158","37324","0.0-1.0-157.0","false","a,l","l","200","true","200","1","0","0.5","2","-1","1","600","400","white","gray","3","2","2","19.940000000000147","[18,15.400000000001455,17,16.599999999998545,16.80000000000291,57.89999999999418,8.60000000000582,15.900000000001455,17.39999999999418,15.80000000000291]","10"
"-1","-1","RDK","159","37542","0.0-1.0-158.0","false","a,l","a","200","true","200","1","180","0.5","2","-1","1","600","400","white","gray","3","2","2","18.209090909090513","[17.5,43.999999999992724,4.7000000000116415,17.39999999999418,16.69999999999709,16.200000000004366,17.30000000000291,16.59999999999127,16.700000000004366,16.599999999998545,16.599999999998545]","11"
"-1","-1","RDK","160","37759","0.0-1.0-159.0","false","a,l","l","200","true","200","1","0","0.5","2","-1","1","600","400","white","gray","3","2","2","16.70000000000012","[16.799999999995634,16.900000000001455,16.60000000000582,16.39999999999418,25.60000000000582,8,15.69999999999709,17.60000000000582,16.69999999999709,15.80000000000291,17.599999999998545,16.69999999999709]","12"
"-1","-1","RDK","161","37974","0.0-1.0-160.0","false","a,l","a","200","true","200","1","180","0.5","2","-1","1","600","400","white","gray","3","2","2","16.70000000000012","[17.400000000001455,26.69999999999709,5.80000000000291,17.000000000007276,16.799999999995634,16.69999999999709,16.69999999999709,16.700000000004366,16.69999999999709,17.400000000001455,15.500000000007276,16.999999999992724]","12"
"-1","-1","RDK","162","38192","0.0-1.0-161.0","false","a,l","l","200","true","200","1","0","0.5","2","-1","1","600","400","white","gray","3","2","2","16.699999999999516","[17.199999999989814,16.40000000000873,15.799999999995634,23.19999999999709,11,16.700000000004366,16.69999999999709,16.700000000004366,16.69999999999709,16.599999999998545,16.69999999999709,16.700000000004366]","12"
"-1","-1","RDK","163","38409","0.0-1.0-162.0","false","a,l","l","200","true","200","1","0","0.5","2","-1","1","600","400","white","gray","3","2","2","18.209090909091174","[17.30000000000291,16.099999999998545,16.799999999995634,16.69999999999709,37,12.900000000001455,16.700000000004366,16.80000000000291,16.699999999989814,16.60000000000582,16.700000000004366]","11"
"-1","-1","RDK","164","38626","0.0-1.0-163.0","false","a,l","l","200","true","200","1","0","0.5","2","-1","1","600","400","white","gray","3","2","2","16.70000000000012","[16.69999999999709,25.10000000000582,8.299999999995634,16.80000000000291,16.700000000004366,16.69999999999709,16.5,16.900000000001455,16.5,16.799999999995634,16.700000000004366,16.69999999999709]","12"
"-1","-1","RDK","165","38842","0.0-1.0-164.0","false","a,l","l","200","true","200","1","0","0.5","2","-1","1","600","400","white","gray","3","2","2","16.70000000000012","[17.099999999998545,16.5,16.599999999998545,21.400000000001455,11.30000000000291,17.39999999999418,16.60000000000582,16.799999999995634,16.69999999999709,16.60000000000582,16.69999999999709,16.700000000004366]","12"
"-1","-1","RDK","166","39057","0.0-1.0-165.0","false","a,l","a","200","true","200","1","180","0.5","2","-1","1","600","400","white","gray","3","2","2","18.459999999999127","[19.19999999999709,15.39999999999418,16.700000000004366,15.700000000004366,17.59999999999127,36,13.10000000000582,17.599999999998545,16.69999999999709,16.599999999998545]","10"
"-1","-1","RDK","167","39260","0.0-1.0-166.0","false","a,l","l","200","true","200","1","0","0.5","2","-1","1","600","400","white","gray","3","2","2","17.927272727271802","[15.19999999999709,16.30000000000291,33.199999999989814,16.80000000000291,16.200000000004366,17.19999999999709,16.700000000004366,16.69999999999709,15.900000000001455,22.400000000001455,10.599999999991269]","11"
"-1","-1","RDK","168","39476","0.0-1.0-167.0","false","a,l","l","200","true","200","1","0","0.5","2","-1","1","600","400","white","gray","3","2","2","16.691666666666908","[17.30000000000291,16.5,16.400000000001455,15.80000000000291,22.999999999992724,10.80000000000291,21,13.10000000000582,16.39999999999418,16.700000000004366,16.5,16.799999999995634]","12"
"-1","-1","RDK","169","39691","0.0-1.0-168.0","false","a,l","l","200","true","200","1","0","0.5","2","-1","1","600","400","white","gray","3","2","2","16.699999999999516","[17.900000000001455,17.299999999995634,15.30000000000291,16.5,16.099999999998545,17.30000000000291,16.700000000004366,16.59999999999127,16,17.400000000001455,16.700000000004366,16.59999999999127]","12"
"-1","-1","RDK","170","39910","0.0-1.0-169.0","false","a,l","l","200","true","200","1","0","0.5","2","-1","1","600","400","white","gray","3","2","2","16.70000000000012","[17.80000000000291,15.89999999999418,16.599999999998545,16.700000000004366,16.69999999999709,16.599999999998545,16.69999999999709,16.700000000004366,16.69999999999709,15.80000000000291,17.400000000001455,16.80000000000291]","12"
"-1","-1","RDK","171","40124","0.0-1.0-170.0","false","a,l","a","200","true","200","1","180","0.5","2","-1","1","600","400","white","gray","3","2","2","18.43999999999942","[18,16.39999999999418,16.599999999998545,16.80000000000291,16.599999999998545,35.700000000004366,13.400000000001455,17.599999999998545,16.599999999998545,16.69999999999709]","10"
"-1","-1","RDK","172","40326","0.0-1.0-171.0","false","a,l","l","200","true","200","1","0","0.5","2","-1","1","600","400","white","gray","3","2","2","18.109090909091307","[16.200000000004366,47.799999999995634,3.6000000000058208,15,16.599999999998545,16.69999999999709,16.700000000004366,16.69999999999709,16.700000000004366,16.59999999999127,16.60000000000582]","11"
"-1","-1","RDK","173","40542","0.0-1.0-172.0","false","a,l","a","200","true","200","1","180","0.5","2","-1","1","600","400","white","gray","3","2","2","16.650000000000244","[17.400000000001455,16.299999999995634,16.599999999998545,15.900000000001455,27.099999999998545,7.000000000007276,15.89999999999418,17.500000000007276,16.699999999989814,16.69999999999709,16.700000000004366,16.000000000007276]","12"
"-1","-1","RDK","174","40758","0.0-1.0-173.0","false","a,l","l","200","true","200","1","0","0.5","2","-1","1","600","400","white","gray","3","2","2","16.625","[17.200000000004366,16.30000000000291,16.89999999999418,16.599999999998545,16.69999999999709,15.60000000000582,25.599999999998545,9,21.69999999999709,10.700000000004366,17.299999999995634,15.900000000001455]","12"
"-1","-1","RDK","175","40979","0.0-1.0-174.0","false","a,l","l","200","true","200","1","0","0.5","2","-1","1","600","400","white","gray","3","2","2","16.70000000000012","[17.89999999999418,15.700000000004366,16.69999999999709,27.69999999999709,5.300000000010186,16.999999999992724,16.69999999999709,16.700000000004366,16.30000000000291,17,16.69999999999709,16.700000000004366]","12"
"-1","-1","RDK","176","41194","0.0-1.0-175.0","false","a,l","l","200","true","200","1","0","0.5","2","-1","1","600","400","white","gray","3","2","2","20.030000000000292","[17.400000000001455,16.200000000004366,15.999999999992724,16.40000000000873,17.59999999999127,61.30000000000291,5.599999999998545,16.500000000007276,15.89999999999418,17.400000000001455]","10"
"-1","-1","RDK","177","41408","0.0-1.0-176.0","false","a,l","a","200","true","200","1","180","0.5","2","-1","1","600","400","white","gray","3","2","2","18.227272727272727","[21.000000000007276,38.39999999999418,7.600000000005821,16.69999999999709,16.599999999998545,16.80000000000291,16.5,16.900000000001455,15.799999999995634,17.5,16.69999999999709]","11"
"-1","-1","RDK","178","41627","0.0-1.0-177.0","false","a,l","l","200","true","200","1","0","0.5","2","-1","1","600","400","white","gray","3","2","2","16.70000000000012","[17.200000000004366,16.5,16.599999999998545,16.69999999999709,21.5,11.900000000001455,16.69999999999709,16.599999999998545,16.69999999999709,16.60000000000582,15.900000000001455,17.5]","12"
"-1","-1","RDK","179","41844","0.0-1.0-178.0","false","a,l","a","200","true","200","1","180","0.5","2","-1","1","600","400","white","gray","3","2","2","16.691666666666908","[17.70000000001164,15.999999999992724,16.599999999998545,16.69999999999709,16.60000000000582,16.099999999998545,24,9.80000000000291,16,17.39999999999418,16.5,16.900000000001455]","12"
"-1","-1","RDK","180","42059","0.0-1.0-179.0","false","a,l","l","200","true","200","1","0","0.5","2","-1","1","600","400","white","gray","3","2","2","16.67499999999988","[18.19999999999709,16.19999999999709,30.700000000004366,2.599999999998545,15.89999999999418,17.500000000007276,16.599999999998545,16.69999999999709,16.700000000004366,16.69999999999709,15.900000000001455,16.400000000001455]","12"
"-1","-1","RDK","181","42277","0.0-1.0-180.0","false","a,l","l","200","true","200","1","0","0.5","2","-1","1","600","400","white","gray","3","2","2","16.691666666667516","[17.100000000013097,16.39999999999418,16.69999999999709,16.700000000004366,16.599999999998545,22,11.30000000000291,16.799999999995634,16.5,16.80000000000291,16.69999999999709,16.700000000004366]","12"
"-1","-1","RDK","182","42494","0.0-1.0-181.0","false","a,l","a","200","true","200","1","180","0.5","2","-1","1","600","400","white","gray","3","2","2","18.21818181818195","[25.19999999999709,27.200000000004366,14.400000000001455,16.69999999999709,16.799999999995634,16.60000000000582,16.700000000004366,16.69999999999709,16.69999999999709,16.599999999998545,16.80000000000291]","11"
"-1","-1","RDK","183","42708","0.0-1.0-182.0","false","a,l","l","200","true","200","1","0","0.5","2","-1","1","600","400","white","gray","3","2","2","16.790909090909487","[18.30000000000291,15.900000000001455,27.69999999999709,5.30000000000291,17.400000000001455,18.5,14.69999999999709,16.799999999995634,16.700000000004366,16.69999999999709,16.700000000004366]","11"
"-1","-1","RDK","184","42910","0.0-1.0-183.0","false","a,l","a","200","true","200","1","180","0.5","2","-1","1","600","400","white","gray","3","2","2","18.172727272727403","[17.299999999995634,16,16.5,16.700000000004366,16.69999999999709,16.69999999999709,32.5,16.900000000001455,17.200000000004366,16.69999999999709,16.700000000004366]","11"
"-1","-1","RDK","185","43126","0.0-1.0-184.0","false","a,l","l","200","true","200","1","0","0.5","2","-1","1","600","400","white","gray","3","2","2","16.75833333333382","[17.500000000007276,15.999999999992724,16,24.30000000000291,8.999999999992724,17.40000000000873,16.80000000000291,15.89999999999418,17.400000000001455,16.80000000000291,15.799999999995634,18.200000000004366]","12"
"-1","-1","RDK","186","43343","0.0-1.0-185.0","false","a,l","l","200","true","200","1","0","0.5","2","-1","1","600","400","white","gray","3","2","2","18.200000000000397","[17.200000000004366,16.30000000000291,16.69999999999709,16.599999999998545,16.40000000000873,36.999999999992724,13.30000000000291,16.700000000004366,16.799999999995634,16.599999999998545,16.599999999998545]","11"
"-1","-1","RDK","187","43558","0.0-1.0-186.0","false","a,l","a","200","true","200","1","180","0.5","2","-1","1","600","400","white","gray","3","2","2","18.359999999999854","[26,27.5,14,16.799999999995634,16.69999999999709,16.700000000004366,16.60000000000582,16.69999999999709,16.599999999998545,16]","10"
"-1","-1","RDK","188","43761","0.0-1.0-187.0","false","a,l","a","200","true","200","1","180","0.5","2","-1","1","600","400","white","gray","3","2","2","18.172727272727403","[17.299999999995634,15.800000000010186,16.69999999999709,39.19999999999709,10.80000000000291,16.599999999998545,16.80000000000291,16.69999999999709,16.700000000004366,16.59999999999127,16.700000000004366]","11"
"-1","-1","RDK","189","43975","0.0-1.0-188.0","false","a,l","l","200","true","200","1","0","0.5","2","-1","1","600","400","white","gray","3","2","2","16.790909090908826","[21.5,12.5,17.19999999999709,16.700000000004366,16.599999999998545,16.700000000004366,16.799999999995634,16.69999999999709,16.60000000000582,16.699999999989814,16.700000000004366]","11"
"-1","-1","RDK","190","44177","0.0-1.0-189.0","false","a,l","a","200","true","200","1","180","0.5","2","-1","1","600","400","white","gray","3","2","2","16.574999999999516","[16.19999999999709,16.5,16.599999999998545,25.80000000000291,7.599999999998545,16.60000000000582,16.69999999999709,16.5,16.900000000001455,16.69999999999709,16.599999999998545,16.19999999999709]","12"
"-1","-1","RDK","191","44394","0.0-1.0-190.0","false","a,l","a","200","true","200","1","180","0.5","2","-1","1","600","400","white","gray","3","2","2","16.691666666666908","[17.10000000000582,16.400000000001455,16.69999999999709,16.69999999999709,16.700000000004366,16.599999999998545,23.19999999999709,9.700000000004366,17.099999999998545,16.700000000004366,16.09999999999127,17.30000000000291]","12"
"-1","-1","RDK","192","44611","0.0-1.0-191.0","false","a,l","a","200","true","200","1","180","0.5","2","-1","1","600","400","white","gray","3","2","2","18.21818181818195","[18.099999999998545,37.60000000000582,11.299999999995634,16.69999999999709,16.599999999998545,16.700000000004366,16.69999999999709,16.69999999999709,16.60000000000582,16.700000000004366,16.69999999999709]","11"
"-1","-1","RDK","193","44830","0.0-1.0-192.0","false","a,l","a","200","true","200","1","180","0.5","2","-1","1","600","400","white","gray","3","2","2","18.21818181818129","[18.39999999999418,15.099999999998545,16.900000000001455,44.5,4.5,17.5,16.69999999999709,16.80000000000291,16.599999999998545,16.80000000000291,16.599999999998545]","11"
"-1","-1","RDK","194","45042","0.0-1.0-193.0","false","a,l","a","200","true","200","1","180","0.5","2","-1","1","600","400","white","gray","3","2","2","18.409999999999854","[17.799999999995634,16.400000000001455,16.599999999998545,16.80000000000291,16.599999999998545,37.400000000001455,11.700000000004366,27.89999999999418,6.600000000005821,16.299999999995634]","10"
"-1","-1","RDK","195","45244","0.0-1.0-194.0","false","a,l","l","200","true","200","1","0","0.5","2","-1","1","600","400","white","gray","3","2","2","18.163636363636627","[16.599999999998545,16.599999999998545,39,10.80000000000291,16.799999999995634,16.700000000004366,16.60000000000582,16.59999999999127,16.30000000000291,17.099999999998545,16.700000000004366]","11"
"-1","-1","RDK","196","45461","0.0-1.0-195.0","false","a,l","l","200","true","200","1","0","0.5","2","-1","1","600","400","white","gray","3","2","2","16.70000000000012","[23.60000000000582,15.599999999998545,10.89999999999418,16.80000000000291,16.700000000004366,16.799999999995634,16.60000000000582,16.59999999999127,16.700000000004366,16.69999999999709,16.700000000004366,16.69999999999709]","12"
"-1","-1","RDK","197","45676","0.0-1.0-196.0","false","a,l","a","200","true","200","1","180","0.5","2","-1","1","600","400","white","gray","3","2","2","18.409999999999854","[18.30000000000291,15.799999999995634,48.099999999998545,2.400000000001455,15.400000000001455,17.599999999998545,15.599999999998545,17.69999999999709,16.60000000000582,16.599999999998545]","10"
"-1","-1","RDK","198","45878","0.0-1.0-197.0","false","a,l","l","200","true","200","1","0","0.5","2","-1","1","600","400","white","gray","3","2","2","16.59166666666594","[16,16.5,16.599999999998545,16.69999999999709,16.60000000000582,16.69999999999709,23,10.299999999995634,20.400000000001455,12.60000000000582,17.099999999998545,16.59999999999127]","12"
"-1","-1","RDK","199","46095","0.0-1.0-198.0","false","a,l","l","200","true","200","1","0","0.5","2","-1","1","600","400","white","gray","3","2","2","18.209090909091174","[17.30000000000291,16.000000000007276,34.69999999999709,15.599999999998545,16.700000000004366,16.59999999999127,16.700000000004366,16.80000000000291,16.599999999998545,16.39999999999418,16.900000000001455]","11"
"-1","-1","RDK","200","46312","0.0-1.0-199.0","false","a,l","l","200","true","200","1","0","0.5","2","-1","1","600","400","white","gray","3","2","2","16.70000000000012","[17.19999999999709,16.400000000001455,16.700000000004366,15.900000000001455,17.299999999995634,20.19999999999709,13.200000000004366,16.700000000004366,16.59999999999127,16.800000000010186,16.69999999999709,16.69999999999709]","12"
