"rt","key_press","trial_type","trial_index","time_elapsed","internal_node_id","correct","choices","correct_choice","trial_duration","response_ends_trial","number_of_dots","number_of_sets","coherent_direction","coherence","dot_radius","dot_life","move_distance","aperture_width","aperture_height","dot_color","background_color","RDK_type","aperture_type","reinsert_type","frame_rate","frame_rate_array","number_of_frames"
"2260","13","text","0","2262","0.0-0.0","","","","","","","","","","","","","","","","","","","","","",""
"-1","-1","RDK","1","3488","0.0-1.0-0.0","false","a,l","l","200","true","200","1","0","0.5","2","-1","1","600","400","white","gray","3","2","2","22.24499999999999","[77.49000000000024,9.349999999999909,14.644999999999982,16,17.4699999999998,17.815000000000055,14.335000000000036,15.849999999999909,17.25]","9"
"-1","-1","RDK","2","3707","0.0-1.0-1.0","false","a,l","l","200","true","200","1","0","0.5","2","-1","1","600","400","white","gray","3","2","2","16.687916666666677","[16.664999999999964,16.11999999999989,17.125,16.705000000000382,16.61999999999989,17.309999999999945,30.639999999999873,1.8899999999998727,17.490000000000236,16.070000000000164,16.774999999999636,16.845000000000255]","12"
"-1","-1","RDK","3","3919","0.0-1.0-2.0","false","a,l","a","200","true","200","1","180","0.5","2","-1","1","600","400","white","gray","3","2","2","16.665833333333353","[17.4699999999998,16.800000000000182,16.579999999999927,16.670000000000073,16.72499999999991,16.63500000000022,16.654999999999745,15.805000000000291,17.3449999999998,16.920000000000073,16.5949999999998,15.790000000000418]","12"
"-1","-1","RDK","4","4139","0.0-1.0-3.0","false","a,l","a","200","true","200","1","180","0.5","2","-1","1","600","400","white","gray","3","2","2","16.734583333333376","[16.945000000000164,16.66500000000042,15.914999999999964,17.284999999999854,16.954999999999927,17.50500000000011,15.824999999999818,16.640000000000327,16.80999999999949,16.659999999999854,16.039999999999964,17.57000000000062]","12"
"-1","-1","RDK","5","4356","0.0-1.0-4.0","false","a,l","l","200","true","200","1","0","0.5","2","-1","1","600","400","white","gray","3","2","2","18.209999999999955","[16.984999999999673,16.49499999999989,16.050000000000182,17.399999999999636,16.664999999999964,16.19000000000051,36.69499999999971,13.8100000000004,16.67999999999938,16.68000000000029,16.659999999999854]","11"
"-1","-1","RDK","6","4572","0.0-1.0-5.0","false","a,l","l","200","true","200","1","0","0.5","2","-1","1","600","400","white","gray","3","2","2","16.800833333333305","[17.720000000000255,17.11999999999989,16.585000000000036,16.289999999999964,16.979999999999563,16.75,18.13000000000011,15.110000000000582,16.61999999999989,17.024999999999636,16.600000000000364,16.67999999999938]","12"
"-1","-1","RDK","7","4789","0.0-1.0-6.0","false","a,l","l","200","true","200","1","0","0.5","2","-1","1","600","400","white","gray","3","2","2","16.74333333333334","[16.68000000000029,17.204999999999927,15.835000000000036,17.484999999999673,16.73999999999978,16.56500000000051,17.719999999999345,15.915000000000873,16.829999999999927,16.25999999999931,15.99499999999989,17.69000000000051]","12"
"-1","-1","RDK","8","5006","0.0-1.0-7.0","false","a,l","a","200","true","200","1","180","0.5","2","-1","1","600","400","white","gray","3","2","2","16.695416666666688","[17.545000000000073,16.145000000000437,16.74499999999989,16.69499999999971,16.649999999999636,16.330000000000837,17.11999999999989,16.404999999999745,16.704999999999927,16.645000000000437,16.664999999999964,16.69499999999971]","12"
"-1","-1","RDK","9","5221","0.0-1.0-8.0","false","a,l","l","200","true","200","1","0","0.5","2","-1","1","600","400","white","gray","3","2","2","16.759583333333314","[17.340000000000146,17.174999999999272,18.4350000000004,22.300000000000182,9.199999999999818,16.640000000000327,16.769999999999527,15.56500000000051,17.424999999999272,17.020000000000437,16.659999999999854,16.585000000000036]","12"
"-1","-1","RDK","10","5442","0.0-1.0-9.0","false","a,l","l","200","true","200","1","0","0.5","2","-1","1","600","400","white","gray","3","2","2","18.23272727272731","[17.095000000000255,16.50500000000011,15.804999999999382,17.44500000000062,16.800000000000182,35.54999999999927,15.195000000000618,15.99499999999989,16.859999999999673,16.01000000000022,17.300000000000182]","11"
"-1","-1","RDK","11","5657","0.0-1.0-10.0","false","a,l","l","200","true","200","1","0","0.5","2","-1","1","600","400","white","gray","3","2","2","16.68416666666667","[17.159999999999854,16.42999999999938,16.780000000000655,16.599999999999454,16.6850000000004,16.11999999999989,17.145000000000437,16.639999999999418,16.659999999999854,15.920000000000073,17.425000000000182,16.645000000000437]","12"
"-1","-1","RDK","12","5871","0.0-1.0-11.0","false","a,l","a","200","true","200","1","180","0.5","2","-1","1","600","400","white","gray","3","2","2","16.714999999999993","[16.6850000000004,17.210000000000036,16.594999999999345,16.4350000000004,16.88000000000011,17.074999999999818,30.80999999999949,1.6300000000001091,17.525000000000546,15.389999999999418,17.735000000000582,16.609999999999673]","12"
"-1","-1","RDK","13","6089","0.0-1.0-12.0","false","a,l","a","200","true","200","1","180","0.5","2","-1","1","600","400","white","gray","3","2","2","18.235000000000003","[17.324999999999818,16.55500000000029,15.779999999999745,17.210000000000036,16.93000000000029,16.67999999999938,33.67000000000007,17.05500000000029,16.024999999999636,15.985000000000582,17.36999999999989]","11"
"-1","-1","RDK","14","6307","0.0-1.0-13.0","false","a,l","l","200","true","200","1","0","0.5","2","-1","1","600","400","white","gray","3","2","2","16.71458333333332","[22.38000000000011,11.210000000000036,16.899999999999636,16.675000000000182,16.585000000000036,16.01000000000022,17.414999999999964,17.625,16.404999999999745,16.00500000000011,16.74499999999989,16.61999999999989]","12"
"-1","-1","RDK","15","6529","0.0-1.0-14.0","false","a,l","a","200","true","200","1","180","0.5","2","-1","1","600","400","white","gray","3","2","2","17.34708333333333","[16.534999999999854,17.050000000000182,16.799999999999272,22.69500000000062,18.01000000000022,9.264999999999418,16.640000000000327,15.724999999999454,17.24000000000069,17.125,16.61999999999989,24.460000000000036]","12"
"-1","-1","RDK","16","6739","0.0-1.0-15.0","false","a,l","a","200","true","200","1","180","0.5","2","-1","1","600","400","white","gray","3","2","2","18.262727272727304","[17.11499999999978,16.640000000000327,15.729999999999563,17.275000000000546,17.05499999999938,16.659999999999854,35.42500000000018,15.329999999999927,16.045000000000073,15.835000000000036,17.780000000000655]","11"
"-1","-1","RDK","17","6957","0.0-1.0-16.0","false","a,l","l","200","true","200","1","0","0.5","2","-1","1","600","400","white","gray","3","2","2","18.244090909090946","[17.210000000000036,16.61999999999989,16.625,16.49499999999989,16.69500000000062,15.909999999999854,34.74499999999989,16.300000000000182,16.51000000000022,16.719999999999345,16.855000000000473]","11"
"-1","-1","RDK","18","7172","0.0-1.0-17.0","false","a,l","a","200","true","200","1","180","0.5","2","-1","1","600","400","white","gray","3","2","2","18.228181818181756","[16.50500000000011,17.169999999999163,16.775000000000546,16.579999999999927,16.649999999999636,16.670000000000073,33.784999999999854,16.11500000000069,16.920000000000073,16.795000000000073,16.544999999999163]","11"
"-1","-1","RDK","19","7390","0.0-1.0-18.0","false","a,l","l","200","true","200","1","0","0.5","2","-1","1","600","400","white","gray","3","2","2","18.22545454545459","[17.230000000000473,16.63000000000011,15.799999999999272,17.085000000000036,17.030000000000655,16.714999999999236,33.16500000000087,17.5049999999992,16.015000000000327,15.949999999999818,17.355000000000473]","11"
"-1","-1","RDK","20","7607","0.0-1.0-19.0","false","a,l","l","200","true","200","1","0","0.5","2","-1","1","600","400","white","gray","3","2","2","16.755416666666708","[17.98999999999978,16.485000000000582,16.63000000000011,16.579999999999927,16.6899999999996,15.909999999999854,17.470000000000255,16.6899999999996,16.69500000000062,16.609999999999673,16.654999999999745,16.660000000000764]","12"
"-1","-1","RDK","21","7822","0.0-1.0-20.0","false","a,l","l","200","true","200","1","0","0.5","2","-1","1","600","400","white","gray","3","2","2","16.627916666666653","[16.545000000000073,17.389999999999418,16.515000000000327,16.710000000000036,16.600000000000364,16.11999999999989,17.969999999999345,16.050000000000182,16.324999999999818,17.13000000000011,15.720000000000255,16.460000000000036]","12"
"-1","-1","RDK","22","8036","0.0-1.0-21.0","false","a,l","l","200","true","200","1","0","0.5","2","-1","1","600","400","white","gray","3","2","2","16.725909090909145","[17.25500000000011,16.480000000000473,16.734999999999673,16.710000000000036,16.960000000000036,16.399999999999636,18.86499999999978,17.515000000000327,13.875,16.4350000000004,16.75500000000011]","11"
"-1","-1","RDK","23","8240","0.0-1.0-22.0","false","a,l","a","200","true","200","1","180","0.5","2","-1","1","600","400","white","gray","3","2","2","16.649999999999938","[15.645000000000437,16.959999999999127,17.284999999999854,16.700000000000728,16.579999999999927,16.93499999999949,16.390000000001237,16.594999999999345,16.764999999999418,16.585000000000946,16.68499999999949,16.674999999999272]","12"
"-1","-1","RDK","24","8456","0.0-1.0-23.0","false","a,l","l","200","true","200","1","0","0.5","2","-1","1","600","400","white","gray","3","2","2","16.722083333333256","[17.109999999998763,15.989999999999782,17.345000000001164,16.69999999999891,16.590000000000146,16.704999999999927,31.140000000001237,1.9499999999989086,16.94000000000051,16.2450000000008,17.334999999999127,16.61499999999978]","12"
"-1","-1","RDK","25","8675","0.0-1.0-24.0","false","a,l","l","200","true","200","1","0","0.5","2","-1","1","600","400","white","gray","3","2","2","16.637916666666722","[17.100000000000364,16.270000000000437,17.06999999999971,16.700000000000728,16.18499999999949,17.145000000000437,16.639999999999418,17.850000000000364,16.06999999999971,16.145000000000437,16.80999999999949,15.670000000000073]","12"
"-1","-1","RDK","26","8890","0.0-1.0-25.0","false","a,l","a","200","true","200","1","180","0.5","2","-1","1","600","400","white","gray","3","2","2","16.71291666666669","[17.450000000000728,16.539999999999054,16.145000000000437,17.11999999999898,16.600000000000364,16.659999999999854,15.755000000001019,17.36999999999898,16.975000000000364,16.659999999999854,16.640000000001237,16.639999999999418]","12"
"-1","-1","RDK","27","9110","0.0-1.0-26.0","false","a,l","a","200","true","200","1","180","0.5","2","-1","1","600","400","white","gray","3","2","2","18.20590909090904","[16.325000000000728,15.904999999998836,17.325000000000728,16.81999999999971,16.6299999999992,32.69500000000153,17.344999999999345,16.895000000000437,15.994999999998981,17.270000000000437,17.05999999999949]","11"
"-1","-1","RDK","28","9325","0.0-1.0-27.0","false","a,l","l","200","true","200","1","0","0.5","2","-1","1","600","400","white","gray","3","2","2","18.135454545454525","[17.234999999998763,16.665000000000873,16.575000000000728,16.679999999998472,16.06500000000051,17.145000000000437,34.32999999999993,15.799999999999272,16.480000000001382,16.779999999998836,15.735000000000582]","11"
"-1","-1","RDK","29","9540","0.0-1.0-28.0","false","a,l","a","200","true","200","1","180","0.5","2","-1","1","600","400","white","gray","3","2","2","18.28545454545466","[17.4900000000016,16.784999999999854,16.539999999999054,16.649999999999636,16.730000000001382,16.61999999999898,33.3700000000008,17.854999999999563,15.614999999999782,16.69000000000051,16.795000000000073]","11"
"-1","-1","RDK","30","9757","0.0-1.0-29.0","false","a,l","l","200","true","200","1","0","0.5","2","-1","1","600","400","white","gray","3","2","2","18.23636363636367","[17.034999999999854,15.789999999999054,17.55500000000029,16.700000000000728,16.420000000000073,16.729999999999563,34.23999999999978,15.950000000000728,16.034999999999854,17.654999999998836,16.4900000000016]","11"
"-1","-1","RDK","31","9975","0.0-1.0-30.0","false","a,l","l","200","true","200","1","0","0.5","2","-1","1","600","400","white","gray","3","2","2","16.617916666666588","[16.899999999999636,16.73999999999978,16.600000000000364,16.840000000000146,16.219999999999345,17.63000000000102,16.215000000000146,16.664999999999054,16.575000000000728,16.8799999999992,16.485000000000582,15.664999999999054]","12"
"-1","-1","RDK","32","10192","0.0-1.0-31.0","false","a,l","a","200","true","200","1","180","0.5","2","-1","1","600","400","white","gray","3","2","2","16.734999999999975","[17.770000000000437,16.545000000000073,16.43000000000029,16.729999999999563,18.2450000000008,22.5049999999992,8.364999999999782,17.210000000000946,17.11499999999978,16.625,16.590000000000146,16.68999999999869]","12"
"-1","-1","RDK","33","10405","0.0-1.0-32.0","false","a,l","a","200","true","200","1","180","0.5","2","-1","1","600","400","white","gray","3","2","2","18.155454545454464","[17.159999999999854,15.819999999999709,17.354999999999563,16.895000000000437,16.63500000000022,35.94499999999971,14.055000000000291,16.6299999999992,16.01000000000022,16.88000000000102,16.32499999999891]","11"
"-1","-1","RDK","34","10625","0.0-1.0-33.0","false","a,l","l","200","true","200","1","0","0.5","2","-1","1","600","400","white","gray","3","2","2","18.235909090909033","[17.19499999999971,16.69999999999891,16.645000000000437,16.68000000000029,15.979999999999563,17.30500000000029,33.905000000000655,16.854999999999563,16.090000000000146,16.530000000000655,16.709999999999127]","11"
"-1","-1","RDK","35","10841","0.0-1.0-34.0","false","a,l","a","200","true","200","1","180","0.5","2","-1","1","600","400","white","gray","3","2","2","16.753333333333256","[17.109999999998763,17.18000000000029,16.61499999999978,16.655000000000655,16.649999999999636,16.710000000000946,17.670000000000073,15.8799999999992,16.604999999999563,16.710000000000946,16.729999999999563,16.524999999999636]","12"
"-1","-1","RDK","36","11059","0.0-1.0-35.0","false","a,l","l","200","true","200","1","0","0.5","2","-1","1","600","400","white","gray","3","2","2","18.247727272727307","[22.715000000000146,10.125,17.420000000000073,16.9950000000008,16.475000000000364,16.55500000000029,34.19499999999971,15.924999999999272,16,17.325000000000728,16.99499999999898]","11"
"-1","-1","RDK","37","11275","0.0-1.0-36.0","false","a,l","l","200","true","200","1","0","0.5","2","-1","1","600","400","white","gray","3","2","2","16.697083333333314","[17.125,16.51000000000022,16.729999999999563,16.649999999999636,15.979999999999563,17.515000000001237,16.590000000000146,26.014999999999418,7.260000000000218,16.645000000000437,16.704999999999927,16.639999999999418]","12"
"-1","-1","RDK","38","11490","0.0-1.0-37.0","false","a,l","a","200","true","200","1","180","0.5","2","-1","1","600","400","white","gray","3","2","2","18.27090909090905","[16.94000000000051,17.5,16.530000000000655,35.81999999999971,14.135000000000218,16.704999999999927,16.229999999999563,17.174999999999272,16.655000000000655,16.645000000000437,16.644999999998618]","11"
"-1","-1","RDK","39","11705","0.0-1.0-38.0","false","a,l","a","200","true","200","1","180","0.5","2","-1","1","600","400","white","gray","3","2","2","18.39400000000005","[17.145000000000437,15.69000000000051,17.399999999999636,16.959999999999127,16.590000000000146,16.68500000000131,36.30500000000029,14.649999999999636,15.090000000000146,17.424999999999272]","10"
"-1","-1","RDK","40","11908","0.0-1.0-39.0","false","a,l","l","200","true","200","1","0","0.5","2","-1","1","600","400","white","gray","3","2","2","16.55909090909104","[15.735000000000582,16.575000000000728,16.590000000000146,16.659999999999854,16.8849999999984,15.850000000000364,17.19499999999971,16.730000000001382,16.789999999999054,16.479999999999563,16.660000000001673]","11"
"-1","-1","RDK","41","12117","0.0-1.0-40.0","false","a,l","l","200","true","200","1","0","0.5","2","-1","1","600","400","white","gray","3","2","2","15.98083333333337","[8.229999999999563,16.085000000000946,17.215000000000146,16.674999999999272,16.704999999999927,16.575000000000728,16.69499999999971,16.86499999999978,15.5,17.19999999999891,17.210000000000946,16.81500000000051]","12"
"-1","-1","RDK","42","12322","0.0-1.0-41.0","false","a,l","l","200","true","200","1","0","0.5","2","-1","1","600","400","white","gray","3","2","2","16.67333333333333","[17.654999999998836,16.649999999999636,16.645000000000437,15.850000000000364,17.19000000000051,16.99499999999898,16.710000000000946,16.6299999999992,16.665000000000873,16.625,16.729999999999563,15.735000000000582]","12"
"-1","-1","RDK","43","12542","0.0-1.0-42.0","false","a,l","l","200","true","200","1","0","0.5","2","-1","1","600","400","white","gray","3","2","2","16.689166666666704","[17.3799999999992,15.605000000001382,17.63500000000022,15.734999999998763,17.575000000000728,16.659999999999854,30.579999999999927,2.5450000000000728,17.139999999999418,16.25,16.784999999999854,16.38000000000102]","12"
"-1","-1","RDK","44","12758","0.0-1.0-43.0","false","a,l","a","200","true","200","1","180","0.5","2","-1","1","600","400","white","gray","3","2","2","18.243636363636224","[17.339999999998327,15.795000000000073,17.63500000000022,16.284999999999854,16.570000000001528,16.644999999998618,33.530000000000655,16.674999999999272,16.215000000000146,17.06000000000131,16.929999999998472]","11"
"-1","-1","RDK","45","12976","0.0-1.0-44.0","false","a,l","l","200","true","200","1","0","0.5","2","-1","1","600","400","white","gray","3","2","2","18.12954545454539","[17.104999999999563,16.584999999999127,16.730000000001382,36.149999999999636,13.885000000000218,16.639999999999418,15.854999999999563,17.515000000001237,16.644999999998618,16.655000000000655,15.659999999999854]","11"
"-1","-1","RDK","46","13188","0.0-1.0-45.0","false","a,l","a","200","true","200","1","180","0.5","2","-1","1","600","400","white","gray","3","2","2","18.409999999999854","[17.389999999999418,16.664999999999054,16.6150000000016,16.659999999999854,16.704999999999927,16.664999999999054,33.340000000000146,16.899999999999636,16.659999999999854,16.5]","10"
"-1","-1","RDK","47","13394","0.0-1.0-46.0","false","a,l","l","200","true","200","1","0","0.5","2","-1","1","600","400","white","gray","3","2","2","18.12409090909089","[15.875,16.845000000001164,15.715000000000146,17.419999999998254,16.665000000000873,16.645000000000437,33.850000000000364,16.2549999999992,16.56999999999971,16.145000000000437,17.3799999999992]","11"
"-1","-1","RDK","48","13608","0.0-1.0-47.0","false","a,l","l","200","true","200","1","0","0.5","2","-1","1","600","400","white","gray","3","2","2","18.288636363636297","[17.729999999999563,16.590000000000146,16.56999999999971,16.610000000000582,15.654999999998836,17.19000000000051,34.23500000000058,16.524999999999636,16.479999999999563,16.790000000000873,16.799999999999272]","11"
"-1","-1","RDK","49","13822","0.0-1.0-48.0","false","a,l","a","200","true","200","1","180","0.5","2","-1","1","600","400","white","gray","3","2","2","16.775909090909078","[17.829999999999927,16.850000000000364,16.450000000000728,16.715000000000146,16.6299999999992,16.68499999999949,16.67500000000109,26.465000000000146,6.764999999999418,16.854999999999563,16.61499999999978]","11"
"-1","-1","RDK","50","14023","0.0-1.0-49.0","false","a,l","a","200","true","200","1","180","0.5","2","-1","1","600","400","white","gray","3","2","2","18.12045454545461","[19.784999999999854,13.470000000001164,16.69999999999891,15.850000000000364,36.61999999999898,14.260000000000218,16.640000000001237,16.664999999999054,16.670000000000073,16.68000000000029,15.985000000000582]","11"
"-1","-1","RDK","51","14242","0.0-1.0-50.0","false","a,l","a","200","true","200","1","180","0.5","2","-1","1","600","400","white","gray","3","2","2","18.2168181818182","[17.07499999999891,16.63000000000102,16.655000000000655,16.68499999999949,16.61999999999898,16.715000000000146,33.590000000000146,17.210000000000946,16.0049999999992,16.48999999999978,16.710000000000946]","11"
"-1","-1","RDK","52","14458","0.0-1.0-51.0","false","a,l","l","200","true","200","1","0","0.5","2","-1","1","600","400","white","gray","3","2","2","18.240000000000112","[16.095000000001164,17.344999999999345,17.045000000000073,16.625,16.670000000000073,16.664999999999054,33.960000000000946,15.25,17.459999999999127,16.93500000000131,16.590000000000146]","11"
"-1","-1","RDK","53","14674","0.0-1.0-52.0","false","a,l","a","200","true","200","1","180","0.5","2","-1","1","600","400","white","gray","3","2","2","16.654583333333296","[17.149999999999636,16.664999999999054,16.725000000000364,15.93500000000131,17.625,16.554999999998472,17.5,16.05500000000029,16.25500000000102,16.649999999999636,16.81500000000051,15.924999999999272]","12"
"-1","-1","RDK","54","14892","0.0-1.0-53.0","false","a,l","l","200","true","200","1","0","0.5","2","-1","1","600","400","white","gray","3","2","2","16.69250000000011","[17.325000000000728,16.48999999999978,16.670000000000073,16.639999999999418,16.015000000001237,17.38500000000022,15.959999999999127,17.25500000000102,16.61499999999978,16.68000000000029,16.6349999999984,16.640000000001237]","12"
"-1","-1","RDK","55","15107","0.0-1.0-54.0","false","a,l","l","200","true","200","1","0","0.5","2","-1","1","600","400","white","gray","3","2","2","16.714166666666642","[16.125,17.329999999999927,18.270000000000437,16.354999999999563,15.80999999999949,16.650000000001455,16.579999999999927,16.670000000000073,15.724999999998545,17.325000000000728,17.030000000000655,16.69999999999891]","12"
"-1","-1","RDK","56","15327","0.0-1.0-55.0","false","a,l","a","200","true","200","1","180","0.5","2","-1","1","600","400","white","gray","3","2","2","18.185454545454625","[17.210000000000946,16.644999999998618,16.6200000000008,15.779999999998836,17.38500000000022,35.61000000000058,15.155000000000655,16.099999999998545,16.80500000000029,16.67500000000109,16.05500000000029]","11"
"-1","-1","RDK","57","15543","0.0-1.0-56.0","false","a,l","l","200","true","200","1","0","0.5","2","-1","1","600","400","white","gray","3","2","2","16.714166666666795","[17.42500000000109,16.409999999999854,15.959999999999127,17.30500000000029,16.69499999999971,16.68000000000029,18.415000000000873,15.69000000000051,15.849999999998545,16.710000000000946,16.729999999999563,16.700000000000728]","12"
"-1","-1","RDK","58","15759","0.0-1.0-57.0","false","a,l","l","200","true","200","1","0","0.5","2","-1","1","600","400","white","gray","3","2","2","18.24545454545461","[17.38500000000022,16.18000000000029,17.11999999999898,16.460000000000946,16.610000000000582,16.61499999999978,33.88999999999942,15.325000000000728,17.424999999999272,16.9950000000008,16.69499999999971]","11"
"-1","-1","RDK","59","15974","0.0-1.0-58.0","false","a,l","l","200","true","200","1","0","0.5","2","-1","1","600","400","white","gray","3","2","2","18.16545454545452","[17.045000000000073,16.61499999999978,16.784999999999854,15.694999999999709,17.42500000000109,16.94999999999891,33.340000000000146,17.225000000000364,16.11499999999978,16.69499999999971,15.930000000000291]","11"
"-1","-1","RDK","60","16190","0.0-1.0-59.0","false","a,l","a","200","true","200","1","180","0.5","2","-1","1","600","400","white","gray","3","2","2","16.70083333333332","[16.704999999999927,17.01000000000022,16.69499999999971,16.695000000001528,16.63500000000022,16.659999999999854,15.989999999999782,26.63500000000022,7.420000000000073,16.724999999998545,16.610000000000582,16.6299999999992]","12"
"-1","-1","RDK","61","16407","0.0-1.0-60.0","false","a,l","a","200","true","200","1","180","0.5","2","-1","1","600","400","white","gray","3","2","2","18.23136363636348","[17.1349999999984,16.090000000000146,17.080000000001746,35.61999999999898,14.029999999998836,17.17000000000189,16.68499999999767,16.68500000000131,16.299999999999272,17.145000000000437,16.604999999999563]","11"
"-1","-1","RDK","62","16624","0.0-1.0-61.0","false","a,l","l","200","true","200","1","0","0.5","2","-1","1","600","400","white","gray","3","2","2","18.26727272727261","[18.139999999999418,16.69000000000233,16.659999999999854,15.68999999999869,17.290000000000873,17.139999999999418,35.43499999999767,15.3650000000016,15.825000000000728,16.70499999999811,16]","11"
"-1","-1","RDK","63","16843","0.0-1.0-62.0","false","a,l","l","200","true","200","1","0","0.5","2","-1","1","600","400","white","gray","3","2","2","18.2331818181817","[17.20499999999811,16.825000000000728,16.325000000000728,16.645000000000437,16.604999999999563,16.794999999998254,33.909999999999854,15.915000000000873,16.915000000000873,16.650000000001455,16.774999999997817]","11"
"-1","-1","RDK","64","17059","0.0-1.0-63.0","false","a,l","a","200","true","200","1","180","0.5","2","-1","1","600","400","white","gray","3","2","2","18.23999999999995","[22.709999999999127,10.659999999999854,17.455000000001746,16.270000000000437,16.654999999998836,16.599999999998545,34.034999999999854,15.159999999999854,17.17500000000291,17.264999999999418,16.654999999998836]","11"
"-1","-1","RDK","65","17278","0.0-1.0-64.0","false","a,l","a","200","true","200","1","180","0.5","2","-1","1","600","400","white","gray","3","2","2","16.609583333333223","[16.99499999999898,16.645000000000437,16.645000000000437,15.645000000000437,17.639999999999418,16.80999999999767,16.625,16.700000000000728,16.56999999999971,16.635000000002037,16.649999999997817,15.755000000001019]","12"
"-1","-1","RDK","66","17492","0.0-1.0-65.0","false","a,l","l","200","true","200","1","0","0.5","2","-1","1","600","400","white","gray","3","2","2","16.72625000000001","[17.354999999999563,16.68500000000131,18.88000000000102,22.11999999999898,8.970000000001164,16.659999999999854,15.909999999999854,17.325000000000728,16.834999999999127,16.590000000000146,16.68000000000029,16.70499999999811]","12"
"-1","-1","RDK","67","17708","0.0-1.0-66.0","false","a,l","l","200","true","200","1","0","0.5","2","-1","1","600","400","white","gray","3","2","2","18.234090909090643","[17.125,16.039999999997235,17.325000000000728,16.67000000000189,16.729999999999563,35.659999999999854,14.279999999998836,16.665000000000873,16.18500000000131,17.25499999999738,16.639999999999418]","11"
"-1","-1","RDK","68","17925","0.0-1.0-67.0","false","a,l","l","200","true","200","1","0","0.5","2","-1","1","600","400","white","gray","3","2","2","18.14681818181833","[17.080000000001746,16.68000000000029,16.68999999999869,16.659999999999854,16.225000000002183,17.174999999999272,33.58499999999913,17.2400000000016,15.854999999999563,16.69499999999971,15.729999999999563]","11"
"-1","-1","RDK","69","18143","0.0-1.0-68.0","false","a,l","l","200","true","200","1","0","0.5","2","-1","1","600","400","white","gray","3","2","2","18.235909090909196","[17.400000000001455,16.544999999998254,16.575000000000728,16.56999999999971,16.650000000001455,16.709999999999127,33.669999999998254,16.590000000000146,16.6050000000032,16.62999999999738,16.650000000001455]","11"
"-1","-1","RDK","70","18359","0.0-1.0-69.0","false","a,l","l","200","true","200","1","0","0.5","2","-1","1","600","400","white","gray","3","2","2","18.242272727272805","[17.25500000000102,16.034999999999854,17.354999999999563,17.470000000001164,15.715000000000146,16.57499999999709,33.92500000000291,16.219999999997526,16.159999999999854,17.42000000000189,16.534999999999854]","11"
"-1","-1","RDK","71","18578","0.0-1.0-70.0","false","a,l","a","200","true","200","1","180","0.5","2","-1","1","600","400","white","gray","3","2","2","16.60583333333337","[16.389999999999418,17.31999999999971,16.6150000000016,16.739999999997963,16.00500000000102,17.18500000000131,16.649999999997817,26.090000000000146,7.225000000002183,16.674999999999272,15.68999999999869,16.68500000000131]","12"
"-1","-1","RDK","72","18790","0.0-1.0-71.0","false","a,l","a","200","true","200","1","180","0.5","2","-1","1","600","400","white","gray","3","2","2","18.413000000000103","[17.549999999999272,16.56999999999971,16.67500000000291,35.93499999999767,14.014999999999418,15.735000000000582,17.424999999999272,16.970000000001164,16.639999999999418,16.6150000000016]","10"
"-1","-1","RDK","73","18993","0.0-1.0-72.0","false","a,l","a","200","true","200","1","180","0.5","2","-1","1","600","400","white","gray","3","2","2","18.217272727272675","[15.739999999997963,17.67500000000291,15.829999999998108,17.375,16.799999999999272,15.795000000001892,34.840000000000146,16.235000000000582,16.57999999999811,16,17.520000000000437]","11"
"-1","-1","RDK","74","19209","0.0-1.0-73.0","false","a,l","a","200","true","200","1","180","0.5","2","-1","1","600","400","white","gray","3","2","2","18.23090909090884","[17.239999999997963,16.625,16.525000000001455,16.639999999999418,16.595000000001164,16.18999999999869,34.51499999999942,16.215000000000146,16.56000000000131,16.715000000000146,16.719999999997526]","11"
"-1","-1","RDK","75","19426","0.0-1.0-74.0","false","a,l","l","200","true","200","1","0","0.5","2","-1","1","600","400","white","gray","3","2","2","16.802083333333332","[18.19000000000233,16.94999999999709,16.42500000000291,16.594999999997526,16.63000000000102,16.70499999999811,17.43500000000131,15.465000000000146,18.479999999999563,16.275000000001455,16.110000000000582,16.364999999997963]","12"
"-1","-1","RDK","76","19645","0.0-1.0-75.0","false","a,l","a","200","true","200","1","180","0.5","2","-1","1","600","400","white","gray","3","2","2","18.247272727272833","[16.610000000000582,17.110000000000582,15.875,17.349999999998545,16.94000000000233,16.764999999999418,34.029999999998836,16.11999999999898,16.290000000000873,16.19000000000233,17.43999999999869]","11"
"-1","-1","RDK","77","19861","0.0-1.0-76.0","false","a,l","l","200","true","200","1","0","0.5","2","-1","1","600","400","white","gray","3","2","2","16.68791666666645","[17.07999999999811,15.450000000000728,17.69499999999971,16.645000000000437,16.665000000000873,16.00499999999738,17.37000000000262,16.614999999997963,16.75,16.67000000000189,16.649999999997817,16.659999999999854]","12"
"-1","-1","RDK","78","20076","0.0-1.0-77.0","false","a,l","l","200","true","200","1","0","0.5","2","-1","1","600","400","white","gray","3","2","2","16.7179166666668","[19.56000000000131,14.239999999997963,16.604999999999563,16.715000000000146,16.640000000003056,15.899999999997817,18.330000000001746,14.904999999998836,17.529999999998836,16.955000000001746,16.625,16.610000000000582]","12"
"-1","-1","RDK","79","20291","0.0-1.0-78.0","false","a,l","a","200","true","200","1","180","0.5","2","-1","1","600","400","white","gray","3","2","2","18.41949999999997","[18.19499999999971,16.68000000000029,15.625,17.345000000001164,16.93999999999869,16.235000000000582,36.26000000000204,14.809999999997672,16.080000000001746,16.024999999997817]","10"
"-1","-1","RDK","80","20497","0.0-1.0-79.0","false","a,l","a","200","true","200","1","180","0.5","2","-1","1","600","400","white","gray","3","2","2","18.11863636363606","[16.00499999999738,16.655000000002474,16.414999999997235,16.639999999999418,16.665000000000873,16.63000000000102,34.20000000000073,16.215000000000146,16.465000000000146,16.789999999997235,16.625]","11"
"-1","-1","RDK","81","20710","0.0-1.0-80.0","false","a,l","a","200","true","200","1","180","0.5","2","-1","1","600","400","white","gray","3","2","2","16.721666666666653","[16.674999999999272,16.705000000001746,17.125,16.840000000000146,16.55500000000029,16.789999999997235,17.445000000003347,16.389999999999418,15.029999999998836,17.31499999999869,17.125,16.665000000000873]","12"
"-1","-1","RDK","82","20930","0.0-1.0-81.0","false","a,l","a","200","true","200","1","180","0.5","2","-1","1","600","400","white","gray","3","2","2","16.651250000000193","[17.165000000000873,16.75500000000102,16.604999999999563,15.744999999998981,17.450000000000728,16.93500000000131,16.544999999998254,17.06999999999971,16.19000000000233,16.95499999999811,16.645000000000437,15.755000000001019]","12"
"-1","-1","RDK","83","21144","0.0-1.0-82.0","false","a,l","l","200","true","200","1","0","0.5","2","-1","1","600","400","white","gray","3","2","2","18.216363636363727","[17.330000000001746,16.584999999999127,16.645000000000437,33.57999999999811,16.779999999998836,15.650000000001455,17.50500000000102,16.474999999998545,16.584999999999127,16.55000000000291,16.69499999999971]","11"
"-1","-1","RDK","84","21360","0.0-1.0-83.0","false","a,l","a","200","true","200","1","180","0.5","2","-1","1","600","400","white","gray","3","2","2","18.253636363636442","[17.1150000000016,16.159999999999854,17.154999999998836,16.67000000000189,16.669999999998254,16.659999999999854,35.63500000000204,14.18999999999869,16.779999999998836,16.93500000000131,16.81999999999971]","11"
"-1","-1","RDK","85","21577","0.0-1.0-84.0","false","a,l","l","200","true","200","1","0","0.5","2","-1","1","600","400","white","gray","3","2","2","16.67375000000023","[17.265000000003056,16.669999999998254,16.67000000000189,15.644999999996799,17.55000000000291,16.864999999997963,18.174999999999272,15.515000000003056,16.239999999997963,16.700000000000728,16.82999999999811,15.960000000002765]","12"
"-1","-1","RDK","86","21795","0.0-1.0-85.0","false","a,l","a","200","true","200","1","180","0.5","2","-1","1","600","400","white","gray","3","2","2","16.719999999999953","[17.469999999997526,16.155000000002474,16.94499999999971,16.674999999999272,16.790000000000873,16.7599999999984,17.635000000002037,16.109999999996944,16.12000000000262,16.774999999997817,16.63000000000102,16.575000000000728]","12"
"-1","-1","RDK","87","22011","0.0-1.0-86.0","false","a,l","a","200","true","200","1","180","0.5","2","-1","1","600","400","white","gray","3","2","2","16.715416666666595","[17.234999999996944,15.970000000001164,17.610000000000582,16.349999999998545,16.854999999999563,16.455000000001746,17.94499999999971,16.040000000000873,15.954999999998108,16.405000000002474,17.174999999999272,16.590000000000146]","12"
"-1","-1","RDK","88","22229","0.0-1.0-87.0","false","a,l","a","200","true","200","1","180","0.5","2","-1","1","600","400","white","gray","3","2","2","16.610833333333176","[17.114999999997963,15.645000000000437,17.49500000000262,15.669999999998254,17.290000000000873,16.74499999999898,17.00500000000102,16.11999999999898,17.215000000000146,16.625,16.69499999999971,15.709999999999127]","12"
"-1","-1","RDK","89","22444","0.0-1.0-88.0","false","a,l","l","200","true","200","1","0","0.5","2","-1","1","600","400","white","gray","3","2","2","18.242727272727112","[17.275000000001455,16.709999999999127,16.6349999999984,16.465000000000146,32.470000000001164,16.970000000001164,16.68999999999869,17.68500000000131,15.329999999998108,17.779999999998836,16.659999999999854]","11"
"-1","-1","RDK","90","22661","0.0-1.0-89.0","false","a,l","l","200","true","200","1","0","0.5","2","-1","1","600","400","white","gray","3","2","2","18.25","[17.145000000000437,15.99500000000262,17.375,16.70499999999811,16.56000000000131,16.700000000000728,35.69499999999971,14.819999999999709,15.779999999998836,17.360000000000582,16.614999999997963]","11"
"-1","-1","RDK","91","22879","0.0-1.0-90.0","false","a,l","l","200","true","200","1","0","0.5","2","-1","1","600","400","white","gray","3","2","2","16.61916666666669","[17.135000000002037,16.575000000000728,16.729999999999563,15.604999999999563,17.409999999999854,17.044999999998254,16.515000000003056,16.6349999999984,16.700000000000728,16.61999999999898,16.715000000000146,15.744999999998981]","12"
"-1","-1","RDK","92","23094","0.0-1.0-91.0","false","a,l","l","200","true","200","1","0","0.5","2","-1","1","600","400","white","gray","3","2","2","16.725833333333565","[20.49500000000262,13.604999999999563,15.794999999998254,17.4900000000016,16.61999999999898,16.700000000000728,31.18000000000029,2.0499999999992724,16.875,16.544999999998254,16.715000000000146,16.640000000003056]","12"
"-1","-1","RDK","93","23311","0.0-1.0-92.0","false","a,l","l","200","true","200","1","0","0.5","2","-1","1","600","400","white","gray","3","2","2","18.234090909090977","[16.959999999999127,16.034999999999854,17.06000000000131,16.959999999999127,16.645000000000437,15.924999999999272,35.11000000000058,15.830000000001746,16.20499999999811,17.215000000000146,16.63000000000102]","11"
"-1","-1","RDK","94","23530","0.0-1.0-93.0","false","a,l","l","200","true","200","1","0","0.5","2","-1","1","600","400","white","gray","3","2","2","16.618749999999938","[17.219999999997526,15.55000000000291,17.625,16.724999999998545,16.07999999999811,17.18500000000131,16.735000000000582,16.610000000000582,16.665000000000873,16.664999999997235,16.68000000000029,15.68500000000131]","12"
"-1","-1","RDK","95","23744","0.0-1.0-94.0","false","a,l","l","200","true","200","1","0","0.5","2","-1","1","600","400","white","gray","3","2","2","18.261363636363637","[17.485000000000582,16.74499999999898,16.534999999999854,16.654999999998836,32.29500000000189,17.044999999998254,17.30000000000291,17.014999999999418,16.539999999997235,16.735000000000582,16.525000000001455]","11"
"-1","-1","RDK","96","23962","0.0-1.0-95.0","false","a,l","a","200","true","200","1","180","0.5","2","-1","1","600","400","white","gray","3","2","2","18.220909090909117","[17.229999999999563,15.889999999999418,17.510000000002037,16.604999999999563,16.529999999998836,16.659999999999854,36.55000000000291,13.469999999997526,15.965000000000146,16.405000000002474,17.614999999997963]","11"
"-1","-1","RDK","97","24180","0.0-1.0-96.0","false","a,l","l","200","true","200","1","0","0.5","2","-1","1","600","400","white","gray","3","2","2","18.139090909090804","[17.040000000000873,16.114999999997963,17.2400000000016,16.6349999999984,16.150000000001455,17.274999999997817,33.57500000000073,16.9900000000016,16.18499999999767,16.585000000002765,15.739999999997963]","11"
"-1","-1","RDK","98","24395","0.0-1.0-97.0","false","a,l","a","200","true","200","1","180","0.5","2","-1","1","600","400","white","gray","3","2","2","18.260909090909","[17.56499999999869,16.63000000000102,16.544999999998254,16.525000000001455,16.659999999999854,16.700000000000728,33.779999999998836,17.264999999999418,15.850000000002183,16.649999999997817,16.700000000000728]","11"
"-1","-1","RDK","99","24611","0.0-1.0-98.0","false","a,l","l","200","true","200","1","0","0.5","2","-1","1","600","400","white","gray","3","2","2","16.71833333333325","[17.159999999999854,16.090000000000146,17.209999999999127,16.885000000002037,16.62999999999738,16.760000000002037,17.470000000001164,16.234999999996944,16.155000000002474,16.024999999997817,17.62000000000262,16.37999999999738]","12"
"-1","-1","RDK","100","24830","0.0-1.0-99.0","false","a,l","l","200","true","200","1","0","0.5","2","-1","1","600","400","white","gray","3","2","2","16.696666666666715","[17.17500000000291,15.68999999999869,17.479999999999563,16.674999999999272,16.05500000000029,17.235000000000582,16.650000000001455,16.764999999999418,16.614999999997963,16.659999999999854,16.69000000000233,16.669999999998254]","12"
"-1","-1","RDK","101","25045","0.0-1.0-100.0","false","a,l","a","200","true","200","1","180","0.5","2","-1","1","600","400","white","gray","3","2","2","18.26909090909083","[17.639999999999418,16.56500000000233,16.604999999999563,16.715000000000146,32.44499999999971,16.659999999999854,17.479999999999563,16.9900000000016,16.709999999999127,16.474999999998545,16.674999999999272]","11"
"-1","-1","RDK","102","25260","0.0-1.0-101.0","false","a,l","a","200","true","200","1","180","0.5","2","-1","1","600","400","white","gray","3","2","2","16.70000000000012","[17.080000000001746,15.834999999999127,17.389999999999418,16.81000000000131,16.845000000001164,16.429999999996653,16.835000000002765,16.039999999997235,17.025000000001455,15.860000000000582,17.474999999998545,16.775000000001455]","12"
"-1","-1","RDK","103","25478","0.0-1.0-102.0","false","a,l","a","200","true","200","1","180","0.5","2","-1","1","600","400","white","gray","3","2","2","16.72583333333326","[17.174999999999272,16.669999999998254,16.610000000000582,16.69000000000233,15.989999999997963,17.29500000000189,30.989999999997963,1.7849999999998545,17.400000000001455,16.625,16.69499999999971,16.784999999999854]","12"
"-1","-1","RDK","104","25695","0.0-1.0-103.0","false","a,l","a","200","true","200","1","180","0.5","2","-1","1","600","400","white","gray","3","2","2","16.747916666666544","[17.799999999999272,16.4900000000016,16.61999999999898,16.69499999999971,16.584999999999127,16.875,17.4800000000032,15.94999999999709,16.514999999999418,16.69000000000233,16.875,16.399999999997817]","12"
"-1","-1","RDK","105","25909","0.0-1.0-104.0","false","a,l","a","200","true","200","1","180","0.5","2","-1","1","600","400","white","gray","3","2","2","18.38999999999978","[17.18999999999869,15.729999999999563,17.470000000001164,16.864999999997963,16.530000000002474,16.614999999997963,33.94499999999971,16.6150000000016,15.474999999998545,17.465000000000146]","10"
"-1","-1","RDK","106","26113","0.0-1.0-105.0","false","a,l","a","200","true","200","1","180","0.5","2","-1","1","600","400","white","gray","3","2","2","16.54999999999988","[15.424999999999272,16.639999999999418,16.56000000000131,21.31999999999971,19.43499999999767,8.43500000000131,17.479999999999563,16.6150000000016,16.729999999999563,16.599999999998545,16.67000000000189,16.68999999999869]","12"
"-1","-1","RDK","107","26328","0.0-1.0-106.0","false","a,l","l","200","true","200","1","0","0.5","2","-1","1","600","400","white","gray","3","2","2","18.178636363636375","[19.349999999998545,14.255000000001019,16.854999999999563,16.63000000000102,16.654999999998836,16.7599999999984,34.965000000000146,14.965000000000146,16.87000000000262,16.524999999997817,16.135000000002037]","11"
"-1","-1","RDK","108","26545","0.0-1.0-107.0","false","a,l","a","200","true","200","1","180","0.5","2","-1","1","600","400","white","gray","3","2","2","18.239545454545638","[17.12000000000262,16.70499999999811,15.690000000002328,17.429999999996653,16.8650000000016,16.68000000000029,34.00500000000102,16.18999999999869,16.580000000001746,15.875,17.49499999999898]","11"
"-1","-1","RDK","109","26761","0.0-1.0-108.0","false","a,l","l","200","true","200","1","0","0.5","2","-1","1","600","400","white","gray","3","2","2","16.70041666666657","[17.25499999999738,16.595000000001164,16.534999999999854,16.79500000000189,16.69499999999971,15.915000000000873,17.43999999999869,16.5,16.654999999998836,16.69499999999971,16.67000000000189,16.654999999998836]","12"
"-1","-1","RDK","110","26978","0.0-1.0-109.0","false","a,l","a","200","true","200","1","180","0.5","2","-1","1","600","400","white","gray","3","2","2","16.71374999999989","[16.43500000000131,17.44999999999709,16.590000000000146,16.659999999999854,16.6050000000032,16.724999999998545,30.779999999998836,1.9000000000014552,17.419999999998254,16.280000000002474,17.154999999998836,16.56499999999869]","12"
"-1","-1","RDK","111","27194","0.0-1.0-110.0","false","a,l","l","200","true","200","1","0","0.5","2","-1","1","600","400","white","gray","3","2","2","16.67624999999983","[17.31499999999869,16.735000000000582,15.284999999999854,17.364999999997963,16.94499999999971,16.7300000000032,16.625,16.654999999998836,16.669999999998254,16.67500000000291,15.819999999999709,17.294999999998254]","12"
"-1","-1","RDK","112","27414","0.0-1.0-111.0","false","a,l","a","200","true","200","1","180","0.5","2","-1","1","600","400","white","gray","3","2","2","16.722083333333405","[17.18000000000029,16.720000000001164,16.514999999999418,16.715000000000146,16.57999999999811,16.25,17.900000000001455,16.20499999999811,16.534999999999854,16.79500000000189,16.43999999999869,16.830000000001746]","12"
"-1","-1","RDK","113","27631","0.0-1.0-112.0","false","a,l","a","200","true","200","1","180","0.5","2","-1","1","600","400","white","gray","3","2","2","18.209090909090843","[16.594999999997526,17.275000000001455,16.50500000000102,16.549999999999272,16.610000000000582,16.764999999999418,36.27499999999782,13.150000000001455,17.205000000001746,16.669999999998254,16.700000000000728]","11"
"-1","-1","RDK","114","27845","0.0-1.0-113.0","false","a,l","l","200","true","200","1","0","0.5","2","-1","1","600","400","white","gray","3","2","2","18.23136363636348","[17.11999999999898,16.770000000000437,15.534999999999854,17.284999999999854,17.11999999999898,16.674999999999272,33.515000000003056,17.139999999999418,16.06999999999971,15.799999999999272,17.514999999999418]","11"
"-1","-1","RDK","115","28064","0.0-1.0-114.0","false","a,l","a","200","true","200","1","180","0.5","2","-1","1","600","400","white","gray","3","2","2","18.251363636363582","[17.42000000000189,16.70499999999811,16.55500000000029,16.625,16.67000000000189,15.805000000000291,34.51499999999942,16.50499999999738,16.590000000000146,16.715000000000146,16.659999999999854]","11"
"-1","-1","RDK","116","28279","0.0-1.0-115.0","false","a,l","l","200","true","200","1","0","0.5","2","-1","1","600","400","white","gray","3","2","2","18.238636363636363","[16.56999999999971,17.325000000000728,16.544999999998254,16.639999999999418,16.659999999999854,16.604999999999563,33.765000000003056,15.869999999998981,17.290000000000873,16.799999999999272,16.55500000000029]","11"
"-1","-1","RDK","117","28494","0.0-1.0-116.0","false","a,l","l","200","true","200","1","0","0.5","2","-1","1","600","400","white","gray","3","2","2","16.678750000000036","[17.215000000000146,15.6349999999984,17.56000000000131,16.25500000000102,16.80999999999767,17.030000000002474,16.604999999999563,16.665000000000873,16.69999999999709,16.600000000002183,15.709999999999127,17.360000000000582]","12"
"-1","-1","RDK","118","28714","0.0-1.0-117.0","false","a,l","a","200","true","200","1","180","0.5","2","-1","1","600","400","white","gray","3","2","2","18.251818181818223","[17.099999999998545,16.659999999999854,16.635000000002037,16.68000000000029,32.56999999999971,17.49499999999898,16.79500000000189,16.719999999997526,16.710000000002765,16.474999999998545,16.93000000000029]","11"
"-1","-1","RDK","119","28928","0.0-1.0-118.0","false","a,l","a","200","true","200","1","180","0.5","2","-1","1","600","400","white","gray","3","2","2","16.700833333333623","[16.510000000002037,17.36999999999898,16.030000000002474,17.354999999999563,16.904999999998836,16.360000000000582,16.514999999999418,16.549999999999272,16.150000000001455,17.360000000000582,16.649999999997817,16.655000000002474]","12"
"-1","-1","RDK","120","29145","0.0-1.0-119.0","false","a,l","l","200","true","200","1","0","0.5","2","-1","1","600","400","white","gray","3","2","2","16.68166666666669","[17.084999999999127,16.68999999999869,16.700000000000728,16.125,17.17000000000189,16.74499999999898,30.854999999999563,1.9199999999982538,17.770000000000437,16.12000000000262,15.75,17.25]","12"
"-1","-1","RDK","121","29366","0.0-1.0-120.0","false","a,l","l","200","true","200","1","0","0.5","2","-1","1","600","400","white","gray","3","2","2","16.694583333333565","[23.235000000000582,10.529999999998836,16.710000000002765,16.645000000000437,16.864999999997963,15.825000000000728,17.220000000001164,16.724999999998545,16.56499999999869,16.68500000000131,16.68500000000131,16.645000000000437]","12"
"-1","-1","RDK","122","29580","0.0-1.0-121.0","false","a,l","a","200","true","200","1","180","0.5","2","-1","1","600","400","white","gray","3","2","2","16.728749999999916","[16.174999999999272,17.595000000001164,16.770000000000437,16.539999999997235,15.790000000000873,17.55500000000029,31,2.099999999998545,16.409999999999854,17.535000000003492,16.554999999996653,16.720000000001164]","12"
"-1","-1","RDK","123","29794","0.0-1.0-122.0","false","a,l","a","200","true","200","1","180","0.5","2","-1","1","600","400","white","gray","3","2","2","16.66208333333331","[17.294999999998254,16.19000000000233,16.915000000000873,16.099999999998545,16.965000000000146,16.6349999999984,16.540000000000873,17.110000000000582,16.650000000001455,16.68999999999869,16.665000000000873,16.18999999999869]","12"
"-1","-1","RDK","124","30014","0.0-1.0-123.0","false","a,l","a","200","true","200","1","180","0.5","2","-1","1","600","400","white","gray","3","2","2","16.738333333333383","[17.334999999999127,16.710000000002765,16.55500000000029,16.75,16.55999999999767,15.950000000000728,17.849999999998545,16.42000000000189,16.69499999999971,16.595000000001164,16.68000000000029,16.7599999999984]","12"
"-1","-1","RDK","125","30229","0.0-1.0-124.0","false","a,l","a","200","true","200","1","180","0.5","2","-1","1","600","400","white","gray","3","2","2","16.711666666666435","[16.3949999999968,17.30500000000029,16.840000000000146,16.900000000001455,16.399999999997817,16.700000000000728,16.580000000001746,16.524999999997817,15.99500000000262,17.419999999998254,16.75500000000102,16.724999999998545]","12"
"-1","-1","RDK","126","30446","0.0-1.0-125.0","false","a,l","a","200","true","200","1","180","0.5","2","-1","1","600","400","white","gray","3","2","2","16.677083333333332","[17.150000000001455,16.650000000001455,16.679999999996653,16.020000000000437,16.67000000000189,17.30500000000029,31.049999999999272,1.8349999999991269,17.18500000000131,16.715000000000146,16.69499999999971,16.169999999998254]","12"
"-1","-1","RDK","127","30664","0.0-1.0-126.0","false","a,l","a","200","true","200","1","180","0.5","2","-1","1","600","400","white","gray","3","2","2","16.667916666666617","[16.834999999999127,16.69499999999971,16.760000000002037,16.55500000000029,16.625,15.679999999996653,17.19000000000233,17.0099999999984,16.659999999999854,16.655000000002474,16.70499999999811,16.645000000000437]","12"
"-1","-1","RDK","128","30880","0.0-1.0-127.0","false","a,l","a","200","true","200","1","180","0.5","2","-1","1","600","400","white","gray","3","2","2","16.714583333333394","[16.215000000000146,17.44499999999971,16.010000000002037,17.485000000000582,16.334999999999127,16.955000000001746,31.089999999996508,1.6550000000024738,17.200000000000728,16.764999999999418,16.915000000000873,16.50499999999738]","12"
"-1","-1","RDK","129","31095","0.0-1.0-128.0","false","a,l","l","200","true","200","1","0","0.5","2","-1","1","600","400","white","gray","3","2","2","16.657500000000255","[17.29500000000189,15.735000000000582,17.43499999999767,15.93500000000131,17.36999999999898,16.729999999999563,16.575000000000728,16.700000000000728,16.645000000000437,16.68000000000029,16.709999999999127,16.080000000001746]","12"
"-1","-1","RDK","130","31315","0.0-1.0-129.0","false","a,l","a","200","true","200","1","180","0.5","2","-1","1","600","400","white","gray","3","2","2","16.770416666666886","[17.81999999999971,16.67500000000291,16.649999999997817,16.655000000002474,16.674999999999272,15.934999999997672,17.69000000000233,16.1349999999984,17.05500000000029,16.75,16.56999999999971,16.635000000002037]","12"
"-1","-1","RDK","131","31529","0.0-1.0-130.0","false","a,l","a","200","true","200","1","180","0.5","2","-1","1","600","400","white","gray","3","2","2","16.685416666666544","[16.30500000000029,17.419999999998254,16.979999999999563,16.49500000000262,16.674999999999272,16.625,18.360000000000582,18.709999999999127,12.055000000000291,17.32999999999811,16.909999999999854,16.360000000000582]","12"
"-1","-1","RDK","132","31746","0.0-1.0-131.0","false","a,l","l","200","true","200","1","0","0.5","2","-1","1","600","400","white","gray","3","2","2","18.20954545454548","[17.18000000000029,16.57999999999811,16.74500000000262,15.889999999999418,17.349999999998545,16.75,33.88999999999942,16.81000000000131,16.020000000000437,16.779999999998836,16.31000000000131]","11"
"-1","-1","RDK","133","31965","0.0-1.0-132.0","false","a,l","l","200","true","200","1","0","0.5","2","-1","1","600","400","white","gray","3","2","2","18.214545454545508","[17.00500000000102,16.6349999999984,16.50500000000102,16.610000000000582,16.68999999999869,16.67000000000189,33.904999999998836,16.375,16.55500000000029,16.584999999999127,16.825000000000728]","11"
"-1","-1","RDK","134","32181","0.0-1.0-133.0","false","a,l","a","200","true","200","1","180","0.5","2","-1","1","600","400","white","gray","3","2","2","18.259090909090776","[16.165000000000873,17.224999999998545,17.095000000001164,16.604999999999563,16.654999999998836,16.659999999999854,33.595000000001164,15.959999999999127,17.18000000000029,16.764999999999418,16.94499999999971]","11"
"-1","-1","RDK","135","32395","0.0-1.0-134.0","false","a,l","a","200","true","200","1","180","0.5","2","-1","1","600","400","white","gray","3","2","2","16.644166666666933","[17.070000000003347,16.68499999999767,23.264999999999418,17.49500000000262,9.104999999999563,16.875,15.75499999999738,17.165000000000873,17.00500000000102,16.770000000000437,16.584999999999127,15.955000000001746]","12"
"-1","-1","RDK","136","32614","0.0-1.0-135.0","false","a,l","a","200","true","200","1","180","0.5","2","-1","1","600","400","white","gray","3","2","2","18.22681818181842","[17.19000000000233,16.74499999999898,16.534999999999854,16.68000000000029,16.61999999999898,35.36000000000058,15.145000000000437,16.290000000000873,16.659999999999854,16.594999999997526,16.67500000000291]","11"
"-1","-1","RDK","137","32831","0.0-1.0-136.0","false","a,l","l","200","true","200","1","0","0.5","2","-1","1","600","400","white","gray","3","2","2","18.25","[19.125,14.325000000004366,17.084999999999127,16.654999999998836,16.68000000000029,16.625,33.87999999999738,15.834999999999127,16.910000000003492,17.044999999998254,16.584999999999127]","11"
"-1","-1","RDK","138","33050","0.0-1.0-137.0","false","a,l","l","200","true","200","1","0","0.5","2","-1","1","600","400","white","gray","3","2","2","16.651666666666642","[16.339999999996508,17.62000000000262,16.705000000001746,15.834999999999127,17.19999999999709,17.030000000006112,17.469999999993888,16.125,16.24500000000262,16.62999999999738,16.8550000000032,15.764999999999418]","12"
"-1","-1","RDK","139","33261","0.0-1.0-138.0","false","a,l","l","200","true","200","1","0","0.5","2","-1","1","600","400","white","gray","3","2","2","18.399499999999534","[16.275000000001455,17.69499999999971,16.50999999999476,16.575000000004366,16.69499999999971,16.68499999999767,33.724999999998545,16.44000000000233,16.68000000000029,16.714999999996508]","10"
"-1","-1","RDK","140","33468","0.0-1.0-139.0","false","a,l","a","200","true","200","1","180","0.5","2","-1","1","600","400","white","gray","3","2","2","16.611249999999927","[16.294999999998254,15.74500000000262,16.735000000000582,17.139999999999418,16.68000000000029,16.6050000000032,16.709999999999127,16.6449999999968,16.709999999999127,15.724999999998545,17.325000000004366,17.0199999999968]","12"
"-1","-1","RDK","141","33683","0.0-1.0-140.0","false","a,l","l","200","true","200","1","0","0.5","2","-1","1","600","400","white","gray","3","2","2","16.70624999999988","[17.0199999999968,16.69000000000233,16.69999999999709,16.67500000000291,32.21499999999651,1.9350000000049477,16.744999999995343,15.959999999999127,16.585000000006403,16.729999999995925,16.665000000000873,16.55500000000029]","12"
"-1","-1","RDK","142","33895","0.0-1.0-141.0","false","a,l","l","200","true","200","1","0","0.5","2","-1","1","600","400","white","gray","3","2","2","18.477999999999884","[17.904999999998836,16.885000000002037,16.419999999998254,16.62999999999738,16.625,16.404999999998836,35.9600000000064,14.844999999993888,16.400000000001455,16.705000000001746]","10"
"-1","-1","RDK","143","34098","0.0-1.0-142.0","false","a,l","a","200","true","200","1","180","0.5","2","-1","1","600","400","white","gray","3","2","2","18.025000000000134","[15.205000000001746,16.650000000001455,16.619999999995343,16.035000000003492,17.235000000000582,16.724999999998545,33.93000000000029,16.19000000000233,16.57499999999709,15.595000000001164,17.514999999999418]","11"
"-1","-1","RDK","144","34314","0.0-1.0-143.0","false","a,l","a","200","true","200","1","180","0.5","2","-1","1","600","400","white","gray","3","2","2","18.207727272727592","[16.970000000001164,16.635000000002037,16.55999999999767,16.62999999999738,16.655000000006112,15.709999999999127,34.62999999999738,16.4800000000032,16.639999999999418,16.75999999999476,16.61500000000524]","11"
"-1","-1","RDK","145","34529","0.0-1.0-144.0","false","a,l","a","200","true","200","1","180","0.5","2","-1","1","600","400","white","gray","3","2","2","16.634583333333165","[16.205000000001746,17.589999999996508,16.709999999999127,16.845000000001164,16.435000000004948,16.619999999995343,16.69000000000233,26.419999999998254,6.120000000002619,17.470000000001164,15.69999999999709,16.80999999999767]","12"
"-1","-1","RDK","146","34750","0.0-1.0-145.0","false","a,l","a","200","true","200","1","180","0.5","2","-1","1","600","400","white","gray","3","2","2","18.176818181818156","[17.099999999998545,16.709999999999127,16.62000000000262,35.904999999998836,14.190000000002328,16.544999999998254,16.724999999998545,16.6449999999968,16.61500000000524,16.779999999998836,16.110000000000582]","11"
"-1","-1","RDK","147","34965","0.0-1.0-146.0","false","a,l","l","200","true","200","1","0","0.5","2","-1","1","600","400","white","gray","3","2","2","18.220909090909117","[17.150000000001455,16.69000000000233,16.580000000001746,16.68499999999767,16.62999999999738,15.690000000002328,34.92500000000291,16.189999999995052,16.56999999999971,16.69499999999971,16.625]","11"
"-1","-1","RDK","148","35182","0.0-1.0-147.0","false","a,l","a","200","true","200","1","180","0.5","2","-1","1","600","400","white","gray","3","2","2","18.244545454545005","[16.165000000000873,17.45499999999447,16.889999999999418,16.62000000000262,16.639999999999418,16.639999999999418,34.029999999998836,15.785000000003492,16.989999999997963,16.94000000000233,16.534999999996217]","11"
"-1","-1","RDK","149","35401","0.0-1.0-148.0","false","a,l","a","200","true","200","1","180","0.5","2","-1","1","600","400","white","gray","3","2","2","18.214545454545508","[17.19499999999971,16.770000000004075,16.474999999998545,15.930000000000291,17.040000000000873,17.0199999999968,33.4800000000032,17.040000000000873,16.290000000000873,16.625,16.494999999995343]","11"
"-1","-1","RDK","150","35616","0.0-1.0-149.0","false","a,l","a","200","true","200","1","180","0.5","2","-1","1","600","400","white","gray","3","2","2","16.694166666666206","[17.18499999999767,16.599999999998545,16.610000000000582,16.714999999996508,16.635000000002037,15.680000000000291,16.715000000003783,17.50499999999738,16.654999999998836,16.654999999998836,16.67500000000291,16.69999999999709]","12"
"-1","-1","RDK","151","35830","0.0-1.0-150.0","false","a,l","a","200","true","200","1","180","0.5","2","-1","1","600","400","white","gray","3","2","2","16.714166666666642","[19.354999999995925,14.264999999999418,18.380000000004657,16,15.860000000000582,16.589999999996508,16.715000000003783,16.62999999999738,15.75499999999738,17.455000000001746,16.80500000000029,16.760000000002037]","12"
"-1","-1","RDK","152","36048","0.0-1.0-151.0","false","a,l","l","200","true","200","1","0","0.5","2","-1","1","600","400","white","gray","3","2","2","18.193636363636127","[17.13499999999476,16.715000000003783,16.625,15.964999999996508,17.410000000003492,35.56999999999971,15.169999999998254,15.955000000001746,16.964999999996508,16.459999999999127,16.160000000003492]","11"
"-1","-1","RDK","153","36266","0.0-1.0-152.0","false","a,l","a","200","true","200","1","180","0.5","2","-1","1","600","400","white","gray","3","2","2","18.23545454545423","[17.375,16.564999999995052,16.580000000001746,16.62000000000262,16.56999999999971,15.714999999996508,35.13500000000204,16.034999999996217,16.69000000000233,16.55000000000291,16.75499999999738]","11"
"-1","-1","RDK","154","36482","0.0-1.0-153.0","false","a,l","l","200","true","200","1","0","0.5","2","-1","1","600","400","white","gray","3","2","2","18.250454545454968","[16.270000000004075,17.464999999996508,16.955000000001746,16.44499999999971,16.62000000000262,16.639999999999418,33.56499999999505,16.224999999998545,16.860000000000582,17.080000000001746,16.630000000004657]","11"
"-1","-1","RDK","155","36698","0.0-1.0-154.0","false","a,l","a","200","true","200","1","180","0.5","2","-1","1","600","400","white","gray","3","2","2","18.18409090909104","[17.12999999999738,16.520000000004075,16.849999999998545,15.875,17.349999999998545,16.82499999999709,33.44499999999971,17.06999999999971,16.165000000000873,16.74000000000524,16.05500000000029]","11"
"-1","-1","RDK","156","36917","0.0-1.0-155.0","false","a,l","l","200","true","200","1","0","0.5","2","-1","1","600","400","white","gray","3","2","2","16.70000000000012","[17.31999999999971,16.400000000001455,16.659999999996217,16.635000000002037,16.669999999998254,16.669999999998254,16.145000000004075,26.424999999995634,7.475000000005821,16.739999999997963,16.5199999999968,16.74000000000524]","12"
"-1","-1","RDK","157","37131","0.0-1.0-156.0","false","a,l","a","200","true","200","1","180","0.5","2","-1","1","600","400","white","gray","3","2","2","18.223181818181978","[17.25,16.200000000004366,16.834999999999127,35.69999999999709,14.459999999999127,16.630000000004657,16.689999999995052,15.75,17.340000000003783,17.014999999999418,16.584999999999127]","11"
"-1","-1","RDK","158","37346","0.0-1.0-157.0","false","a,l","a","200","true","200","1","180","0.5","2","-1","1","600","400","white","gray","3","2","2","16.822727272726876","[18.154999999998836,16.68499999999767,16.630000000004657,15.849999999998545,17.31999999999971,16.919999999998254,17.364999999997963,16.590000000003783,16.125,16.659999999996217,16.75]","11"
"-1","-1","RDK","159","37548","0.0-1.0-158.0","false","a,l","a","200","true","200","1","180","0.5","2","-1","1","600","400","white","gray","3","2","2","16.614583333333332","[16.25,16.56500000000233,16.625,16.639999999999418,16.75,16.625,15.805000000000291,16.825000000004366,17.27499999999418,16.68000000000029,16.68000000000029,16.654999999998836]","12"
"-1","-1","RDK","160","37765","0.0-1.0-159.0","false","a,l","l","200","true","200","1","0","0.5","2","-1","1","600","400","white","gray","3","2","2","16.721249999999902","[16.135000000002037,17.709999999999127,16.165000000000873,17.219999999993888,16.6050000000032,16.169999999998254,31.61500000000524,1.7899999999935972,17.67500000000291,15.25,17.31999999999971,17]","12"
"-1","-1","RDK","161","37982","0.0-1.0-160.0","false","a,l","l","200","true","200","1","0","0.5","2","-1","1","600","400","white","gray","3","2","2","18.229545454545587","[16.9800000000032,16.845000000001164,16.424999999995634,16.639999999999418,15.709999999999127,17.415000000000873,34.36500000000524,16.0199999999968,16.56500000000233,16.739999999997963,16.81999999999971]","11"
"-1","-1","RDK","162","38196","0.0-1.0-161.0","false","a,l","l","200","true","200","1","0","0.5","2","-1","1","600","400","white","gray","3","2","2","16.784545454545217","[18.029999999998836,16.520000000004075,16.674999999995634,16.635000000002037,16.639999999999418,16.69999999999709,16.655000000006112,15.994999999995343,17.400000000001455,16.735000000000582,16.6449999999968]","11"
"-1","-1","RDK","163","38399","0.0-1.0-162.0","false","a,l","l","200","true","200","1","0","0.5","2","-1","1","600","400","white","gray","3","2","2","16.657499999999953","[16.61500000000524,16.654999999998836,16.619999999995343,16.17000000000553,17.19499999999971,16.594999999993888,16.310000000004948,17.915000000000873,15.944999999999709,16.619999999995343,15.955000000001746,17.294999999998254]","12"
"-1","-1","RDK","164","38617","0.0-1.0-163.0","false","a,l","l","200","true","200","1","0","0.5","2","-1","1","600","400","white","gray","3","2","2","16.697083333333165","[17.19499999999971,16.534999999996217,16.639999999999418,16.810000000004948,16.589999999996508,15.930000000000291,17.55000000000291,16.514999999999418,16.534999999996217,16.705000000001746,16.720000000001164,16.639999999999418]","12"
"-1","-1","RDK","165","38833","0.0-1.0-164.0","false","a,l","a","200","true","200","1","180","0.5","2","-1","1","600","400","white","gray","3","2","2","16.730416666666617","[16.19999999999709,17.62999999999738,16.700000000004366,16.599999999998545,16.625,16.69999999999709,31.025000000001455,1.9400000000023283,16.845000000001164,17.13499999999476,16.55000000000291,16.81500000000233]","12"
"-1","-1","RDK","166","39049","0.0-1.0-165.0","false","a,l","l","200","true","200","1","0","0.5","2","-1","1","600","400","white","gray","3","2","2","18.19636363636329","[17.25499999999738,16.55500000000029,16.74500000000262,15.944999999999709,17.239999999997963,16.56999999999971,34.04000000000087,16.044999999998254,16.74000000000524,16.55999999999767,16.464999999996508]","11"
"-1","-1","RDK","167","39267","0.0-1.0-166.0","false","a,l","l","200","true","200","1","0","0.5","2","-1","1","600","400","white","gray","3","2","2","16.704583333332874","[21.099999999998545,12.634999999994761,16.29500000000553,17.119999999995343,16.860000000000582,15.485000000000582,17.510000000002037,16.974999999998545,16.625,16.57499999999709,16.695000000006985,16.57999999999447]","12"
"-1","-1","RDK","168","39483","0.0-1.0-167.0","false","a,l","l","200","true","200","1","0","0.5","2","-1","1","600","400","white","gray","3","2","2","18.2418181818185","[16.135000000002037,17.49500000000262,16.869999999995343,33.19000000000233,17.220000000001164,16.275000000001455,16.599999999998545,16.189999999995052,17.17000000000553,17.02499999999418,16.49000000000524]","11"
"-1","-1","RDK","169","39697","0.0-1.0-168.0","false","a,l","l","200","true","200","1","0","0.5","2","-1","1","600","400","white","gray","3","2","2","18.17136363636382","[17.25499999999738,16.6050000000032,16.639999999999418,15.919999999998254,17.325000000004366,16.659999999996217,35.78500000000349,14.25,16.614999999997963,16.705000000001746,16.125]","11"
"-1","-1","RDK","170","39917","0.0-1.0-169.0","false","a,l","l","200","true","200","1","0","0.5","2","-1","1","600","400","white","gray","3","2","2","18.223636363636285","[17.040000000000873,16.739999999997963,16.665000000000873,16.334999999999127,16.910000000003492,15.709999999999127,34.95999999999913,16.19499999999971,16.669999999998254,16.660000000003492,16.57499999999709]","11"
"-1","-1","RDK","171","40133","0.0-1.0-170.0","false","a,l","l","200","true","200","1","0","0.5","2","-1","1","600","400","white","gray","3","2","2","16.717499999999443","[16.169999999998254,17.68499999999767,16.705000000001746,16.55999999999767,16.599999999998545,16.700000000004366,17.735000000000582,16.114999999997963,15.355000000003201,17.43499999999767,16.87999999999738,16.669999999998254]","12"
"-1","-1","RDK","172","40352","0.0-1.0-171.0","false","a,l","l","200","true","200","1","0","0.5","2","-1","1","600","400","white","gray","3","2","2","18.18500000000032","[17.114999999997963,16.700000000004366,16.540000000000873,15.869999999995343,17.37000000000262,16.654999999998836,33.7699999999968,16.410000000003492,16.514999999999418,16.80500000000029,16.285000000003492]","11"
"-1","-1","RDK","173","40567","0.0-1.0-172.0","false","a,l","l","200","true","200","1","0","0.5","2","-1","1","600","400","white","gray","3","2","2","16.694166666666813","[17,16.474999999998545,23.775000000001455,17.110000000000582,9.275000000001455,16.639999999999418,16.239999999997963,17.224999999998545,16.625,16.62000000000262,16.654999999998836,16.69000000000233]","12"
"-1","-1","RDK","174","40781","0.0-1.0-173.0","false","a,l","a","200","true","200","1","180","0.5","2","-1","1","600","400","white","gray","3","2","2","18.388500000000203","[16.10000000000582,17.544999999998254,16.839999999996508,16.415000000000873,16.875,35.700000000004366,14.349999999998545,15.69999999999709,17.455000000001746,16.904999999998836]","10"
"-1","-1","RDK","175","40985","0.0-1.0-174.0","false","a,l","a","200","true","200","1","180","0.5","2","-1","1","600","400","white","gray","3","2","2","18.195909090908984","[16.525000000001455,16.669999999998254,16.69000000000233,16.674999999995634,15.934999999997672,17.35000000000582,33.95499999999447,16.280000000006112,16.594999999993888,16.765000000006694,16.714999999996508]","11"
"-1","-1","RDK","176","41200","0.0-1.0-175.0","false","a,l","a","200","true","200","1","180","0.5","2","-1","1","600","400","white","gray","3","2","2","16.77291666666618","[17.6449999999968,16.55000000000291,16.854999999995925,16.595000000001164,16.87000000000262,16.50999999999476,17.235000000000582,16.24000000000524,16.610000000000582,16.80500000000029,16.814999999995052,16.544999999998254]","12"
"-1","-1","RDK","177","41416","0.0-1.0-176.0","false","a,l","a","200","true","200","1","180","0.5","2","-1","1","600","400","white","gray","3","2","2","16.709999999999734","[17.19499999999971,15.62999999999738,17.25,17.020000000004075,17.0199999999968,16.264999999999418,16.595000000001164,16.779999999998836,15.809999999997672,16.835000000006403,17.489999999997963,16.62999999999738]","12"
"-1","-1","RDK","178","41635","0.0-1.0-177.0","false","a,l","a","200","true","200","1","180","0.5","2","-1","1","600","400","white","gray","3","2","2","16.695416666666762","[17.029999999998836,16.345000000001164,16.18000000000029,17.44000000000233,15.805000000000291,17.474999999998545,16.735000000000582,16.709999999999127,16.580000000001746,16.68000000000029,16.69499999999971,16.669999999998254]","12"
"-1","-1","RDK","179","41850","0.0-1.0-178.0","false","a,l","a","200","true","200","1","180","0.5","2","-1","1","600","400","white","gray","3","2","2","16.77166666666623","[17.869999999995343,16.55500000000029,16.68000000000029,16.599999999998545,32.150000000001455,1.944999999999709,16.535000000003492,15.729999999995925,17.209999999999127,16.655000000006112,16.679999999993015,16.650000000001455]","12"
"-1","-1","RDK","180","42065","0.0-1.0-179.0","false","a,l","a","200","true","200","1","180","0.5","2","-1","1","600","400","white","gray","3","2","2","16.679999999999684","[16.75,16.034999999996217,17.50499999999738,16.99000000000524,16.784999999996217,16.455000000001746,17.989999999997963,18.55500000000029,13.415000000000873,15.720000000001164,17.25499999999738,16.705000000001746]","12"
"-1","-1","RDK","181","42282","0.0-1.0-180.0","false","a,l","l","200","true","200","1","0","0.5","2","-1","1","600","400","white","gray","3","2","2","16.797727272726743","[20.80500000000029,13.680000000000291,16.889999999999418,16.599999999998545,15.87999999999738,17.334999999999127,17.80500000000029,16.43000000000029,16.025000000001455,16.74500000000262,16.57999999999447]","11"
"-1","-1","RDK","182","42487","0.0-1.0-181.0","false","a,l","a","200","true","200","1","180","0.5","2","-1","1","600","400","white","gray","3","2","2","17.992272727272805","[13.535000000003492,17.38499999999476,16.735000000000582,16.639999999999418,16.635000000002037,16.700000000004366,33.57499999999709,16.0199999999968,16.720000000001164,17.260000000002037,16.709999999999127]","11"
"-1","-1","RDK","183","42703","0.0-1.0-182.0","false","a,l","l","200","true","200","1","0","0.5","2","-1","1","600","400","white","gray","3","2","2","16.692499999999807","[17.07499999999709,16.779999999998836,16.580000000001746,16.385000000002037,17.114999999997963,16.665000000000873,16.55500000000029,16.82499999999709,16.44000000000233,16.849999999998545,15.654999999998836,17.385000000002037]","12"
"-1","-1","RDK","184","42918","0.0-1.0-183.0","false","a,l","l","200","true","200","1","0","0.5","2","-1","1","600","400","white","gray","3","2","2","16.69250000000041","[17.215000000003783,16.639999999999418,16.580000000001746,17.110000000000582,16.75,15.294999999998254,17.44499999999971,16.830000000001746,16.539999999993597,16.655000000006112,16.639999999999418,16.610000000000582]","12"
"-1","-1","RDK","185","43131","0.0-1.0-184.0","false","a,l","a","200","true","200","1","180","0.5","2","-1","1","600","400","white","gray","3","2","2","16.74363636363639","[16.310000000004948,17.64999999999418,16.56500000000233,16.590000000003783,16.52499999999418,16.830000000001746,19.3550000000032,14.654999999998836,15.485000000000582,17.409999999996217,16.80500000000029]","11"
"-1","-1","RDK","186","43336","0.0-1.0-185.0","false","a,l","l","200","true","200","1","0","0.5","2","-1","1","600","400","white","gray","3","2","2","18.001818181817892","[15.635000000002037,16.779999999998836,16.459999999999127,16.635000000002037,16.104999999995925,16.94000000000233,34.31999999999971,16.029999999998836,16.715000000003783,16.674999999995634,15.724999999998545]","11"
"-1","-1","RDK","187","43551","0.0-1.0-186.0","false","a,l","a","200","true","200","1","180","0.5","2","-1","1","600","400","white","gray","3","2","2","18.276818181818022","[17.669999999998254,16.760000000002037,16.415000000000873,16.57499999999709,16.69499999999971,16.650000000001455,33.21500000000378,17.62999999999738,16.020000000004075,16.669999999998254,16.744999999995343]","11"
"-1","-1","RDK","188","43766","0.0-1.0-187.0","false","a,l","a","200","true","200","1","180","0.5","2","-1","1","600","400","white","gray","3","2","2","16.71374999999959","[17.25999999999476,15.740000000005239,17.50999999999476,16.72500000000582,16.674999999995634,16.68000000000029,16.7300000000032,15.464999999996508,17.595000000001164,15.985000000000582,17.44499999999971,16.75499999999738]","12"
"-1","-1","RDK","189","43986","0.0-1.0-188.0","false","a,l","l","200","true","200","1","0","0.5","2","-1","1","600","400","white","gray","3","2","2","16.704999999999927","[17.064999999995052,16.6050000000032,18.224999999998545,15.855000000003201,15.644999999996799,17.084999999999127,16.62000000000262,16.604999999995925,16.720000000001164,16.739999999997963,16.575000000004366,16.720000000001164]","12"
"-1","-1","RDK","190","44201","0.0-1.0-189.0","false","a,l","a","200","true","200","1","180","0.5","2","-1","1","600","400","white","gray","3","2","2","18.266363636363664","[17.56999999999971,16.68499999999767,16.625,16.709999999999127,16.62000000000262,35.724999999998545,14.090000000003783,16.970000000001164,16.664999999993597,16.610000000000582,16.660000000003492]","11"
"-1","-1","RDK","191","44417","0.0-1.0-190.0","false","a,l","a","200","true","200","1","180","0.5","2","-1","1","600","400","white","gray","3","2","2","18.413500000000205","[17.114999999997963,15.855000000003201,17.299999999995634,16.965000000003783,16.589999999996508,16.69499999999971,33.849999999998545,16.61500000000524,15.589999999996508,17.560000000004948]","10"
"-1","-1","RDK","192","44621","0.0-1.0-191.0","false","a,l","a","200","true","200","1","180","0.5","2","-1","1","600","400","white","gray","3","2","2","17.98090909090917","[13.285000000003492,17.609999999993306,16.61500000000524,16.689999999995052,16.660000000003492,16.025000000001455,34.32499999999709,16.610000000000582,16.459999999999127,16.724999999998545,16.785000000003492]","11"
"-1","-1","RDK","193","44835","0.0-1.0-192.0","false","a,l","l","200","true","200","1","0","0.5","2","-1","1","600","400","white","gray","3","2","2","18.246818181818526","[16.885000000002037,17.05500000000029,16.520000000004075,16.659999999996217,16.62000000000262,16.70499999999447,33.49500000000262,16.709999999999127,16.705000000001746,16.580000000001746,16.779999999998836]","11"
"-1","-1","RDK","194","45050","0.0-1.0-193.0","false","a,l","l","200","true","200","1","0","0.5","2","-1","1","600","400","white","gray","3","2","2","16.69624999999966","[17.05999999999767,16.610000000000582,23.205000000001746,17.584999999999127,9.294999999998254,16.635000000002037,16.705000000001746,16.654999999998836,16.6449999999968,16.69000000000233,15.855000000003201,17.414999999993597]","12"
"-1","-1","RDK","195","45266","0.0-1.0-194.0","false","a,l","a","200","true","200","1","180","0.5","2","-1","1","600","400","white","gray","3","2","2","18.149545454545162","[17.044999999998254,16.659999999996217,16.655000000006112,16.64999999999418,16.655000000006112,35.58499999999913,14.489999999997963,16.56500000000233,16.735000000000582,16.6449999999968,15.959999999999127]","11"
"-1","-1","RDK","196","45482","0.0-1.0-195.0","false","a,l","l","200","true","200","1","0","0.5","2","-1","1","600","400","white","gray","3","2","2","18.418499999999767","[19.479999999995925,14.375,16.635000000002037,15.915000000000873,16.8949999999968,17.2300000000032,33.65999999999622,16.685000000004948,16.44999999999709,16.860000000000582]","10"
"-1","-1","RDK","197","45687","0.0-1.0-196.0","false","a,l","l","200","true","200","1","0","0.5","2","-1","1","600","400","white","gray","3","2","2","16.51791666666698","[15.819999999999709,16.560000000004948,16.719999999993888,15.72500000000582,17.764999999999418,16.779999999998836,15.580000000001746,17.404999999998836,16.635000000002037,16.69499999999971,16.659999999996217,15.87000000000262]","12"
"-1","-1","RDK","198","45899","0.0-1.0-197.0","false","a,l","a","200","true","200","1","180","0.5","2","-1","1","600","400","white","gray","3","2","2","16.7304545454542","[17.284999999996217,16.724999999998545,16.61500000000524,16.62999999999738,16.650000000001455,16.68499999999767,30.950000000004366,1.9899999999979627,17.80999999999767,16.05500000000029,16.639999999999418]","11"
"-1","-1","RDK","199","46102","0.0-1.0-198.0","false","a,l","a","200","true","200","1","180","0.5","2","-1","1","600","400","white","gray","3","2","2","16.57541666666657","[15.690000000002328,16.674999999995634,15.985000000000582,16.965000000003783,16.860000000000582,16.735000000000582,16.654999999998836,16.6449999999968,16.700000000004366,16.674999999995634,16.165000000000873,17.154999999998836]","12"
"-1","-1","RDK","200","46323","0.0-1.0-199.0","false","a,l","l","200","true","200","1","0","0.5","2","-1","1","600","400","white","gray","3","2","2","18.229545454545587","[17.014999999999418,16.710000000006403,16.69499999999971,16.6449999999968,15.625,33.669999999998254,17.514999999999418,16.560000000004948,16.739999999997963,16.834999999999127,16.514999999999418]","11"
